time_s,acc_x_m_s2,acc_y_m_s2,acc_z_m_s2,v_x_m_s,v_y_m_s,v_z_m_s,x_pos_m,y_pos_m,z_pos_m,altitude_m
0.0,-0.24,-0.04,9.81,0.0,0.0,0.0,0.0,0.0,600.0,600.0
0.02,0.21,0.09,9.81,-0.0003,0.0005,0.1962,-2.9999999999999997e-06,5e-06,600.0,600.0
0.04,-0.22,-0.03,9.81,-0.0004000000000000001,0.0010999999999999998,0.3924,-1e-05,2.1e-05,600.0,600.0
0.06,-0.06,0.12,9.81,-0.0032,0.0019999999999999996,0.5886,-4.6e-05,5.199999999999999e-05,600.0,600.0
0.08,-0.0,0.28,9.81,-0.0038000000000000004,0.006,0.7848,-0.00011600000000000003,0.000132,600.0,600.0
0.1,-0.09,0.07,9.81,-0.004700000000000001,0.009500000000000001,0.9810000000000001,-0.00020100000000000006,0.00028700000000000004,600.0,600.0
0.12,0.1,-0.28,9.81,-0.004600000000000001,0.007400000000000002,1.1772,-0.00029400000000000004,0.000456,600.0,600.0
0.14,0.36,0.08,9.81,2.6020852139652106e-18,0.0054,1.3734000000000002,-0.0003400000000000001,0.0005840000000000001,600.0,600.0
0.16,-0.2,-0.2,9.81,0.0016000000000000016,0.004200000000000001,1.5696,-0.00032400000000000007,0.00068,600.0,600.0
0.18,-0.07,-0.3,9.81,-0.0010999999999999972,-0.0007999999999999969,1.7658,-0.000319,0.0007140000000000001,600.0,600.0
0.2,0.05,0.01,9.81,-0.0012999999999999976,-0.0036999999999999993,1.9620000000000002,-0.000343,0.0006690000000000001,600.0,600.0
0.22,-0.05,-0.09,9.81,-0.0012999999999999976,-0.004499999999999999,2.1582,-0.0003689999999999999,0.0005870000000000002,600.0,600.0
0.24,-0.02,-0.21,9.81,-0.0019999999999999974,-0.007499999999999997,2.3543999999999996,-0.00040199999999999985,0.0004670000000000003,600.0,600.0
0.26,0.37,0.04,9.81,0.0015000000000000052,-0.009199999999999998,2.5505999999999998,-0.00040699999999999976,0.0003000000000000002,600.0,600.0
0.28,0.12,-0.09,9.81,0.00640000000000001,-0.009699999999999999,2.7468,-0.0003279999999999995,0.00011100000000000007,600.0,600.0
0.3,-0.22,-0.13,9.81,0.0054000000000000116,-0.011899999999999994,2.9429999999999996,-0.00020999999999999952,-0.00010499999999999946,600.0,600.0
0.32,0.12,-0.32,9.81,0.004400000000000011,-0.016399999999999998,3.1391999999999998,-0.00011199999999999921,-0.0003879999999999996,600.0,600.0
0.34,0.23,0.17,9.81,0.007900000000000013,-0.0179,3.3354,1.1000000000001121e-05,-0.0007309999999999999,600.0,600.0
0.36,0.0,0.06,9.81,0.010200000000000008,-0.015600000000000003,3.5315999999999996,0.00019200000000000098,-0.0010659999999999992,600.0,600.0
0.38,0.11,0.05,9.81,0.011300000000000008,-0.014500000000000002,3.7278,0.00040700000000000133,-0.0013669999999999995,600.0,600.0
0.4,0.46,-0.03,9.81,0.017000000000000015,-0.014300000000000002,3.924,0.0006900000000000018,-0.0016549999999999998,600.0,600.0
0.42,0.17,0.06,9.81,0.0233,-0.014000000000000002,4.1202,0.001093000000000001,-0.0019379999999999992,600.0,600.0
0.44,-0.38,0.22,9.81,0.0212,-0.0112,4.3164,0.0015380000000000014,-0.0021899999999999992,600.0,600.0
0.46,-0.11,0.35,9.81,0.016299999999999995,-0.005499999999999995,4.5126,0.0019130000000000015,-0.0023569999999999993,600.0,600.0
0.48,-0.04,0.1,9.81,0.014799999999999997,-0.0010000000000000044,4.708799999999999,0.0022240000000000007,-0.0024219999999999992,600.0,600.0
0.5,0.06,0.38,9.81,0.014999999999999998,0.0037999999999999996,4.904999999999999,0.002522000000000001,-0.0023939999999999994,600.0,600.0
0.52,-0.25,0.27,9.81,0.013099999999999995,0.010300000000000005,5.1011999999999995,0.002803000000000001,-0.0022529999999999994,600.0,600.0
0.54,-0.09,-0.19,9.81,0.009699999999999993,0.011100000000000006,5.2974,0.0030310000000000007,-0.002038999999999999,600.0,600.0
0.56,0.06,-0.58,9.81,0.009399999999999993,0.0033999999999999985,5.4936,0.003222000000000001,-0.001893999999999999,600.0,600.0
0.58,-0.15,-0.0,9.81,0.008499999999999997,-0.002399999999999974,5.689799999999999,0.003401,-0.0018839999999999987,600.0,600.0
0.6,-0.27,0.04,9.81,0.004299999999999993,-0.001999999999999974,5.885999999999999,0.003529,-0.0019279999999999983,600.0,600.0
0.62,0.11,0.28,9.81,0.0026999999999999915,0.0012000000000000287,6.082199999999999,0.0035989999999999998,-0.0019359999999999978,600.0,600.0
0.64,-0.49,0.02,9.81,-0.001100000000000012,0.004200000000000032,6.2783999999999995,0.0036149999999999997,-0.0018819999999999972,600.0,600.0
0.66,0.14,-0.09,9.81,-0.004600000000000015,0.0035000000000000313,6.4746,0.0035579999999999995,-0.0018049999999999965,600.0,600.0
0.68,0.01,0.29,9.81,-0.0031000000000000133,0.005500000000000033,6.6708,0.0034809999999999993,-0.0017149999999999958,600.0,600.0
0.7,0.2,-0.27,9.81,-0.001000000000000023,0.005700000000000031,6.866999999999999,0.003439999999999999,-0.0016029999999999957,600.0,600.0
0.72,-0.13,0.07,9.81,-0.00030000000000002236,0.0037000000000000297,7.063199999999999,0.0034269999999999986,-0.001508999999999995,600.0,600.0
0.74,0.01,-0.16,9.81,-0.0015000000000000234,0.002800000000000029,7.259399999999999,0.003408999999999998,-0.0014439999999999943,600.0,600.0
0.76,-0.29,0.05,9.81,-0.004300000000000026,0.001700000000000028,7.4556,0.003350999999999997,-0.0013989999999999938,600.0,600.0
0.78,-0.11,0.12,9.81,-0.00830000000000003,0.0034000000000000297,7.6518,0.0032249999999999965,-0.001347999999999993,600.0,600.0
0.8,0.31,-0.13,9.81,-0.006300000000000028,0.0033000000000000295,7.848,0.003078999999999996,-0.0012809999999999924,600.0,600.0
0.82,-0.25,0.05,9.81,-0.0057000000000000306,0.0025000000000000334,8.044199999999998,0.002958999999999996,-0.001222999999999992,600.0,600.0
0.84,-0.79,0.21,9.81,-0.01610000000000004,0.005100000000000036,8.2404,0.002740999999999995,-0.0011469999999999913,600.0,600.0
0.86,-0.08,-0.02,9.81,-0.02480000000000005,0.0070000000000000374,8.4366,0.002331999999999994,-0.0010259999999999905,600.0,600.0
0.88,0.31,-0.38,9.81,-0.022500000000000048,0.003000000000000034,8.632800000000001,0.0018589999999999924,-0.0009259999999999897,600.0,600.0
0.9,0.08,0.15,9.81,-0.018600000000000044,0.0007000000000000318,8.829000000000002,0.001447999999999991,-0.000888999999999989,600.0,600.0
0.92,0.21,0.06,9.81,-0.01570000000000004,0.0028000000000000334,9.025200000000003,0.0011049999999999899,-0.0008539999999999883,600.0,600.0
0.94,0.11,0.51,9.81,-0.012500000000000056,0.008500000000000008,9.221400000000003,0.0008229999999999902,-0.0007409999999999884,600.0,600.0
0.96,-0.19,-0.11,9.81,-0.013300000000000057,0.012500000000000011,9.417600000000004,0.0005649999999999888,-0.0005309999999999881,600.0,600.0
0.98,0.2,0.01,9.81,-0.013200000000000057,0.01150000000000001,9.613800000000005,0.0002999999999999874,-0.00029099999999998767,600.0,600.0
1.0,-0.04,0.26,9.81,-0.011600000000000056,0.014200000000000013,9.810000000000006,5.199999999998603e-05,-3.399999999998722e-05,600.0,600.0
1.02,-0.2,-0.03,9.81,-0.01400000000000006,0.016500000000000015,10.006200000000007,-0.00020400000000001537,0.0002730000000000133,600.0,600.0
1.04,-0.11,-0.27,9.81,-0.017100000000000063,0.013500000000000012,10.202400000000008,-0.0005150000000000169,0.0005730000000000138,600.0,600.0
1.06,-0.34,-0.06,9.81,-0.021600000000000067,0.01020000000000001,10.398600000000009,-0.0009020000000000185,0.0008100000000000143,600.0,600.0
1.08,-0.08,-0.08,9.81,-0.025800000000000073,0.008800000000000007,10.59480000000001,-0.0013760000000000202,0.0010000000000000145,600.0,600.0
1.1,-0.02,-0.07,9.81,-0.026800000000000074,0.007300000000000006,10.791000000000011,-0.0019020000000000222,0.0011610000000000149,600.0,600.0
1.12,-0.47,-0.08,9.81,-0.031700000000000075,0.005800000000000005,10.987200000000012,-0.002487000000000024,0.0012920000000000151,600.0,600.0
1.14,0.16,0.07,9.81,-0.034800000000000046,0.005700000000000006,11.18340000000001,-0.0031520000000000185,0.0014070000000000141,600.0,600.0
1.16,0.14,0.2,9.81,-0.031800000000000044,0.008400000000000008,11.37960000000001,-0.00381800000000002,0.0015480000000000144,600.0,600.0
1.18,-0.18,0.41,9.81,-0.03220000000000004,0.014500000000000013,11.575800000000012,-0.004458000000000022,0.001777000000000015,600.0,600.0
1.2,-0.14,0.25,9.81,-0.03540000000000004,0.021100000000000018,11.772000000000013,-0.005134000000000023,0.0021330000000000155,600.0,600.0
1.22,0.05,0.34,9.81,-0.03630000000000004,0.027000000000000024,11.968200000000014,-0.005851000000000025,0.0026140000000000165,600.0,600.0
1.24,0.04,0.02,9.81,-0.03540000000000004,0.030600000000000026,12.164400000000015,-0.006568000000000026,0.0031900000000000175,600.0,600.0
1.26,-0.08,0.1,9.81,-0.03580000000000004,0.03180000000000003,12.360600000000016,-0.007280000000000028,0.0038140000000000188,600.0,600.0
1.28,0.17,-0.25,9.81,-0.03490000000000004,0.03030000000000003,12.556800000000017,-0.007987000000000029,0.00443500000000002,600.0,600.0
1.3,-0.04,-0.16,9.81,-0.03360000000000004,0.026200000000000025,12.753000000000018,-0.00867200000000003,0.005000000000000021,600.0,600.0
1.32,-0.17,-0.02,9.81,-0.035700000000000044,0.024400000000000022,12.949200000000019,-0.009365000000000031,0.005506000000000022,600.0,600.0
1.34,0.17,-0.16,9.81,-0.035700000000000044,0.02260000000000002,13.14540000000002,-0.010079000000000032,0.005976000000000023,600.0,600.0
1.36,0.33,0.23,9.81,-0.03070000000000004,0.02330000000000002,13.341600000000021,-0.010743000000000034,0.006435000000000024,600.0,600.0
1.38,-0.11,0.03,9.81,-0.02850000000000006,0.025899999999999992,13.537800000000018,-0.011335000000000029,0.006927000000000019,600.0,600.0
1.4,0.21,-0.03,9.81,-0.02750000000000006,0.025899999999999992,13.73400000000002,-0.01189500000000003,0.007445000000000019,600.0,600.0
1.42,-0.4,-0.04,9.81,-0.02940000000000006,0.025199999999999993,13.93020000000002,-0.012464000000000032,0.00795600000000002,600.0,600.0
1.44,0.19,0.27,9.81,-0.03150000000000006,0.027499999999999997,14.126400000000022,-0.013073000000000034,0.00848300000000002,600.0,600.0
1.46,0.03,0.04,9.81,-0.029300000000000062,0.0306,14.322600000000023,-0.013681000000000037,0.00906400000000002,600.0,600.0
1.48,-0.11,0.13,9.81,-0.030100000000000064,0.0323,14.518800000000024,-0.01427500000000004,0.009693000000000021,600.0,600.0
1.5,-0.26,-0.3,9.81,-0.033800000000000066,0.030600000000000002,14.715000000000025,-0.014914000000000042,0.010322000000000022,600.0,600.0
1.52,0.19,-0.31,9.81,-0.034500000000000065,0.024499999999999997,14.911200000000026,-0.015597000000000043,0.010873000000000023,600.0,600.0
1.54,0.07,-0.25,9.81,-0.03190000000000006,0.018899999999999993,15.107400000000027,-0.016261000000000046,0.011307000000000024,600.0,600.0
1.56,0.2,-0.2,9.81,-0.02920000000000006,0.01439999999999999,15.303600000000028,-0.016872000000000047,0.011640000000000024,600.0,600.0
1.58,-0.02,0.08,9.81,-0.027400000000000056,0.013199999999999988,15.499800000000029,-0.017438000000000047,0.011916000000000024,600.0,600.0
1.6,-0.02,0.26,9.81,-0.027800000000000057,0.01659999999999999,15.69600000000003,-0.017990000000000048,0.012214000000000023,600.0,600.0
1.62,0.22,-0.06,9.81,-0.025800000000000056,0.01859999999999999,15.892200000000031,-0.01852600000000005,0.012566000000000023,600.0,600.0
1.64,0.4,0.06,9.81,-0.019600000000000117,0.01859999999999999,16.08840000000003,-0.018980000000000045,0.012938000000000019,600.0,600.0
1.66,0.36,0.01,9.81,-0.012000000000000111,0.01929999999999999,16.28460000000003,-0.01929600000000005,0.01331700000000002,600.0,600.0
1.68,0.23,0.27,9.81,-0.006100000000000106,0.022099999999999995,16.48080000000003,-0.01947700000000005,0.01373100000000002,600.0,600.0
1.7,-0.18,0.07,9.81,-0.005600000000000106,0.0255,16.67700000000003,-0.019594000000000052,0.01420700000000002,600.0,600.0
1.72,0.26,0.31,9.81,-0.0048000000000001045,0.029300000000000003,16.873200000000033,-0.019698000000000056,0.01475500000000002,600.0,600.0
1.74,-0.28,-0.1,9.81,-0.005000000000000105,0.031400000000000004,17.069400000000034,-0.019796000000000057,0.01536200000000002,600.0,600.0
1.76,-0.01,0.38,9.81,-0.007900000000000108,0.03420000000000001,17.265600000000035,-0.019925000000000057,0.016018000000000022,600.0,600.0
1.78,0.22,0.02,9.81,-0.005800000000000107,0.03820000000000001,17.461800000000036,-0.02006200000000006,0.016742000000000024,600.0,600.0
1.8,-0.03,-0.21,9.81,-0.0039000000000001056,0.03630000000000001,17.658000000000037,-0.020159000000000062,0.017487000000000023,600.0,600.0
1.82,0.1,0.09,9.81,-0.003200000000000105,0.03510000000000001,17.854200000000038,-0.020230000000000064,0.018201000000000023,600.0,600.0
1.84,-0.18,0.05,9.81,-0.004000000000000106,0.03650000000000001,18.05040000000004,-0.020302000000000067,0.018917000000000024,600.0,600.0
1.86,-0.03,-0.03,9.81,-0.006100000000000107,0.03670000000000001,18.24660000000004,-0.02040300000000007,0.019649000000000024,600.0,600.0
1.88,-0.2,-0.27,9.81,-0.008400000000000084,0.03370000000000004,18.442800000000037,-0.02054800000000007,0.020353000000000017,600.0,600.0
1.9,0.11,0.03,9.81,-0.009300000000000086,0.03130000000000004,18.63900000000004,-0.020725000000000073,0.021003000000000018,600.0,600.0
1.92,0.16,0.18,9.81,-0.006600000000000083,0.03340000000000005,18.83520000000004,-0.020884000000000076,0.02165000000000002,600.0,600.0
1.94,-0.05,-0.03,9.81,-0.005500000000000082,0.03490000000000005,19.03140000000004,-0.02100500000000008,0.022333000000000023,600.0,600.0
1.96,-0.23,0.22,9.81,-0.008300000000000085,0.03680000000000005,19.22760000000004,-0.021143000000000082,0.023050000000000025,600.0,600.0
1.98,-0.12,-0.12,9.81,-0.011800000000000088,0.03780000000000005,19.423800000000043,-0.021344000000000085,0.023796000000000025,600.0,600.0
2.0,-0.04,-0.56,9.81,-0.013400000000000089,0.03100000000000004,19.620000000000044,-0.021596000000000087,0.024484000000000027,600.0,600.0
2.02,-0.02,-0.3,9.81,-0.014000000000000089,0.02240000000000003,19.816200000000045,-0.02187000000000009,0.025018000000000026,600.0,600.0
2.04,0.07,0.01,9.81,-0.013500000000000088,0.019500000000000028,20.012400000000046,-0.02214500000000009,0.02543700000000003,600.0,600.0
2.06,0.23,0.03,9.81,-0.010500000000000086,0.01990000000000003,20.208600000000047,-0.022385000000000092,0.02583100000000003,600.0,600.0
2.08,-0.04,-0.22,9.81,-0.008600000000000083,0.018000000000000026,20.404800000000048,-0.022576000000000093,0.026210000000000032,600.0,600.0
2.1,-0.63,0.17,9.81,-0.01530000000000009,0.017500000000000026,20.60100000000005,-0.022815000000000096,0.026565000000000033,600.0,600.0
2.12,-0.03,-0.23,9.81,-0.021900000000000096,0.016900000000000026,20.79720000000005,-0.023187000000000096,0.026909000000000034,600.0,600.0
2.14,-0.07,0.11,9.81,-0.022900000000000097,0.015700000000000026,20.99340000000005,-0.0236350000000001,0.027235000000000033,600.0,600.0
2.16,0.06,-0.24,9.81,-0.023000000000000097,0.014400000000000026,21.189600000000052,-0.0240940000000001,0.027536000000000033,600.0,600.0
2.18,0.24,-0.26,9.81,-0.020000000000000094,0.009400000000000021,21.385800000000053,-0.024524000000000105,0.027774000000000035,600.0,600.0
2.2,0.04,0.24,9.81,-0.01720000000000009,0.00920000000000002,21.582000000000054,-0.024896000000000106,0.027960000000000037,600.0,600.0
2.22,0.39,0.03,9.81,-0.012900000000000087,0.011900000000000023,21.778200000000055,-0.025197000000000108,0.028171000000000036,600.0,600.0
2.24,0.2,0.27,9.81,-0.007000000000000081,0.014900000000000026,21.974400000000056,-0.02539600000000011,0.028439000000000037,600.0,600.0
2.26,0.14,-0.17,9.81,-0.003600000000000153,0.015900000000000004,22.170600000000054,-0.025502000000000108,0.02874700000000003,600.0,600.0
2.28,0.15,-0.12,9.81,-0.0007000000000001502,0.013000000000000001,22.366800000000055,-0.02554500000000011,0.02903600000000003,600.0,600.0
2.3,0.17,0.04,9.81,0.0024999999999998526,0.0122,22.563000000000056,-0.025527000000000112,0.02928800000000003,600.0,600.0
2.32,0.17,-0.04,9.81,0.005899999999999856,0.0122,22.759200000000057,-0.025443000000000115,0.02953200000000003,600.0,600.0
2.34,0.12,-0.09,9.81,0.008799999999999858,0.0109,22.955400000000058,-0.025296000000000117,0.02976300000000003,600.0,600.0
2.36,0.01,-0.17,9.81,0.010099999999999859,0.008299999999999998,23.15160000000006,-0.02510700000000012,0.02995500000000003,600.0,600.0
2.38,0.05,-0.18,9.81,0.010699999999999859,0.004799999999999995,23.34780000000006,-0.024899000000000122,0.03008600000000003,600.0,600.0
2.4,-0.05,-0.18,9.81,0.010699999999999859,0.0011999999999999923,23.54400000000006,-0.024685000000000124,0.03014600000000003,600.0,600.0
2.42,0.03,-0.27,9.81,0.010499999999999858,-0.0033000000000000117,23.740200000000062,-0.024473000000000127,0.03012500000000003,600.0,600.0
2.44,0.01,0.35,9.81,0.01089999999999986,-0.0025000000000000113,23.936400000000063,-0.024259000000000128,0.03006700000000003,600.0,600.0
2.46,0.25,0.04,9.81,0.013499999999999863,0.0013999999999999915,24.132600000000064,-0.02401500000000013,0.03005600000000003,600.0,600.0
2.48,0.02,0.12,9.81,0.016199999999999867,0.002999999999999993,24.328800000000065,-0.02371800000000013,0.03010000000000003,600.0,600.0
2.5,0.02,-0.21,9.81,0.01659999999999987,0.0020999999999999925,24.525000000000066,-0.023390000000000133,0.03015100000000003,600.0,600.0
2.52,-0.23,0.59,9.81,0.014499999999999867,0.0058999999999999955,24.721200000000067,-0.023079000000000134,0.03023100000000003,600.0,600.0
2.54,-0.37,0.34,9.81,0.008499999999999862,0.015200000000000003,24.917400000000068,-0.022849000000000137,0.030442000000000028,600.0,600.0
2.56,0.22,0.12,9.81,0.0069999999999998605,0.01980000000000001,25.11360000000007,-0.022694000000000138,0.030792000000000028,600.0,600.0
2.58,-0.12,0.08,9.81,0.007999999999999861,0.02180000000000001,25.30980000000007,-0.02254400000000014,0.031208000000000027,600.0,600.0
2.6,-0.17,-0.08,9.81,0.005099999999999858,0.02180000000000001,25.50600000000007,-0.022413000000000145,0.031644000000000026,600.0,600.0
2.62,0.0,-0.06,9.81,0.0033999999999998563,0.02040000000000001,25.702200000000072,-0.022328000000000146,0.032066000000000025,600.0,600.0
2.64,0.02,0.09,9.81,0.0035999999999998564,0.02070000000000001,25.898400000000073,-0.02225800000000015,0.03247700000000003,600.0,600.0
2.66,-0.28,-0.07,9.81,0.0009999999999998539,0.02090000000000001,26.094600000000074,-0.022212000000000152,0.032893000000000026,600.0,600.0
2.68,0.02,0.25,9.81,-0.0016000000000001486,0.022700000000000012,26.290800000000075,-0.022218000000000154,0.033329000000000025,600.0,600.0
2.7,-0.03,0.08,9.81,-0.0017000000000001487,0.026000000000000016,26.487000000000076,-0.022251000000000156,0.03381600000000003,600.0,600.0
2.72,0.09,-0.1,9.81,-0.0011000000000001482,0.025800000000000017,26.683200000000078,-0.02227900000000016,0.034334000000000024,600.0,600.0
2.74,0.36,-0.2,9.81,0.003399999999999855,0.022800000000000015,26.87940000000008,-0.02225600000000016,0.034820000000000025,600.0,600.0
2.76,0.14,-0.25,9.81,0.008399999999999748,0.01830000000000011,27.075600000000076,-0.022138000000000168,0.03523100000000002,600.0,600.0
2.78,0.43,0.22,9.81,0.014099999999999753,0.01800000000000011,27.271800000000077,-0.021913000000000172,0.03559400000000002,600.0,600.0
2.8,-0.18,0.48,9.81,0.016599999999999754,0.025000000000000116,27.468000000000078,-0.021606000000000177,0.03602400000000002,600.0,600.0
2.82,-0.12,0.1,9.81,0.013599999999999751,0.03080000000000012,27.66420000000008,-0.02130400000000018,0.036582000000000024,600.0,600.0
2.84,-0.17,-0.2,9.81,0.010699999999999748,0.029800000000000118,27.86040000000008,-0.021061000000000184,0.03718800000000003,600.0,600.0
2.86,0.14,0.17,9.81,0.010399999999999748,0.029500000000000116,28.05660000000008,-0.020850000000000188,0.03778100000000003,600.0,600.0
2.88,-0.15,0.5,9.81,0.010299999999999749,0.03620000000000012,28.252800000000082,-0.020643000000000192,0.038438000000000035,600.0,600.0
2.9,-0.18,0.27,9.81,0.006999999999999746,0.043900000000000126,28.449000000000083,-0.020470000000000196,0.03923900000000004,600.0,600.0
2.92,0.29,0.24,9.81,0.008099999999999746,0.049000000000000134,28.645200000000084,-0.0203190000000002,0.040168000000000044,600.0,600.0
2.94,0.23,0.44,9.81,0.013299999999999751,0.05580000000000014,28.841400000000085,-0.020105000000000206,0.041216000000000044,600.0,600.0
2.96,-0.05,-0.15,9.81,0.015099999999999753,0.05870000000000014,29.037600000000086,-0.01982100000000021,0.04236100000000005,600.0,600.0
2.98,-0.15,0.21,9.81,0.01309999999999975,0.059300000000000144,29.233800000000087,-0.019539000000000216,0.04354100000000005,600.0,600.0
3.0,0.15,-0.3,9.81,0.01309999999999975,0.058400000000000146,29.43000000000009,-0.01927700000000022,0.044718000000000056,600.0,600.0
3.02,-0.05,-0.06,9.81,0.014099999999999752,0.05480000000000014,29.62620000000009,-0.019005000000000227,0.04585000000000006,600.0,600.0
3.04,0.05,0.03,9.81,0.014099999999999752,0.05450000000000014,29.82240000000009,-0.018723000000000233,0.04694300000000006,600.0,600.0
3.06,0.18,-0.18,9.81,0.016399999999999755,0.05300000000000014,30.01860000000009,-0.018418000000000236,0.04801800000000007,600.0,600.0
3.08,0.38,-0.01,9.81,0.02199999999999976,0.05110000000000014,30.214800000000093,-0.01803400000000024,0.049059000000000075,600.0,600.0
3.1,0.02,-0.06,9.81,0.025999999999999763,0.05040000000000014,30.411000000000094,-0.017554000000000246,0.05007400000000008,600.0,600.0
3.12,-0.19,0.25,9.81,0.024299999999999763,0.05230000000000014,30.607200000000095,-0.01705100000000025,0.05110100000000008,600.0,600.0
3.14,0.23,-0.1,9.81,0.024699999999999764,0.05380000000000014,30.803400000000096,-0.016561000000000253,0.05216200000000008,600.0,600.0
3.16,-0.13,0.06,9.81,0.025699999999999765,0.05340000000000014,30.999600000000097,-0.01605700000000026,0.05323400000000009,600.0,600.0
3.18,-0.34,-0.29,9.81,0.020999999999999762,0.05110000000000014,31.195800000000098,-0.015590000000000263,0.05427900000000009,600.0,600.0
3.2,0.17,0.12,9.81,0.019299999999999762,0.04940000000000014,31.3920000000001,-0.015187000000000268,0.0552840000000001,600.0,600.0
3.22,-0.14,-0.18,9.81,0.019599999999999763,0.048800000000000135,31.5882000000001,-0.014798000000000273,0.0562660000000001,600.0,600.0
3.24,0.31,-0.11,9.81,0.021299999999999764,0.045900000000000135,31.7844000000001,-0.014389000000000277,0.057213000000000104,600.0,600.0
3.26,0.3,0.2,9.81,0.027399999999999633,0.04680000000000012,31.9806000000001,-0.013902000000000293,0.05814000000000009,600.0,600.0
3.28,0.02,0.27,9.81,0.030599999999999634,0.05150000000000012,32.1768000000001,-0.013322000000000299,0.05912300000000009,600.0,600.0
3.3,-0.25,-0.05,9.81,0.02829999999999963,0.05370000000000012,32.3730000000001,-0.012733000000000307,0.060175000000000096,600.0,600.0
3.32,-0.28,-0.07,9.81,0.022999999999999625,0.05250000000000012,32.569200000000095,-0.012220000000000314,0.0612370000000001,600.0,600.0
3.34,-0.23,-0.23,9.81,0.01789999999999962,0.04950000000000012,32.76540000000009,-0.011811000000000321,0.0622570000000001,600.0,600.0
3.36,-0.48,0.07,9.81,0.010799999999999615,0.047900000000000116,32.96160000000009,-0.011524000000000329,0.0632310000000001,600.0,600.0
3.38,-0.39,0.23,9.81,0.0020999999999996074,0.05090000000000012,33.15780000000009,-0.011395000000000337,0.06421900000000011,600.0,600.0
3.4,-0.12,0.09,9.81,-0.0030000000000003973,0.05410000000000012,33.354000000000084,-0.011404000000000344,0.06526900000000012,600.0,600.0
3.42,-0.5,0.11,9.81,-0.009200000000000402,0.05610000000000012,33.55020000000008,-0.011526000000000352,0.06637100000000012,600.0,600.0
3.44,-0.0,-0.19,9.81,-0.014200000000000407,0.05530000000000012,33.74640000000008,-0.01176000000000036,0.06748500000000013,600.0,600.0
3.46,0.17,0.17,9.81,-0.012500000000000405,0.05510000000000012,33.94260000000008,-0.012027000000000369,0.06858900000000014,600.0,600.0
3.48,0.11,-0.16,9.81,-0.009700000000000403,0.055200000000000124,34.138800000000074,-0.012249000000000378,0.06969200000000014,600.0,600.0
3.5,-0.08,-0.07,9.81,-0.009400000000000403,0.05290000000000012,34.33500000000007,-0.012440000000000387,0.07077300000000014,600.0,600.0
3.52,0.17,0.29,9.81,-0.008500000000000401,0.05510000000000012,34.53120000000007,-0.012619000000000396,0.07185300000000014,600.0,600.0
3.54,0.36,-0.12,9.81,-0.003200000000000396,0.05680000000000012,34.72740000000007,-0.012736000000000403,0.07297200000000015,600.0,600.0
3.56,0.15,-0.09,9.81,0.0018999999999996086,0.05470000000000012,34.923600000000064,-0.012749000000000411,0.07408700000000015,600.0,600.0
3.58,-0.09,-0.09,9.81,0.0024999999999996093,0.052900000000000114,35.11980000000006,-0.012705000000000419,0.07516300000000016,600.0,600.0
3.6,-0.15,0.25,9.81,9.999999999960735e-05,0.05450000000000012,35.31600000000006,-0.012679000000000426,0.07623700000000017,600.0,600.0
3.62,0.13,-0.23,9.81,-0.00010000000000039274,0.05470000000000012,35.51220000000006,-0.012679000000000435,0.07732900000000018,600.0,600.0
3.64,-0.01,-0.08,9.81,0.0010999999999996085,0.05160000000000011,35.708400000000054,-0.012669000000000442,0.07839200000000018,600.0,600.0
3.66,-0.13,-0.07,9.81,-0.00030000000000039283,0.05010000000000011,35.90460000000005,-0.01266100000000045,0.07940900000000019,600.0,600.0
3.68,0.21,0.05,9.81,0.0004999999999996077,0.04990000000000011,36.10080000000005,-0.012659000000000458,0.08040900000000019,600.0,600.0
3.7,0.22,0.08,9.81,0.004799999999999611,0.051200000000000113,36.29700000000005,-0.012606000000000466,0.08142000000000019,600.0,600.0
3.72,-0.27,-0.11,9.81,0.0042999999999996106,0.05090000000000011,36.493200000000044,-0.012515000000000474,0.0824410000000002,600.0,600.0
3.74,0.11,0.12,9.81,0.002699999999999609,0.051000000000000115,36.68940000000004,-0.012445000000000482,0.0834600000000002,600.0,600.0
3.76,-0.09,0.22,9.81,0.0028999999999996047,0.054400000000000046,36.88560000000004,-0.012389000000000492,0.08451400000000019,600.0,600.0
3.78,-0.39,0.37,9.81,-0.0019000000000003992,0.06030000000000005,37.08180000000004,-0.012379000000000499,0.08566100000000018,600.0,600.0
3.8,0.27,-0.1,9.81,-0.0031000000000004,0.06300000000000006,37.278000000000034,-0.012429000000000507,0.08689400000000018,600.0,600.0
3.82,0.1,0.31,9.81,0.000599999999999603,0.06510000000000006,37.47420000000003,-0.012454000000000515,0.08817500000000018,600.0,600.0
3.84,-0.2,0.19,9.81,-0.00040000000000039787,0.07010000000000007,37.67040000000003,-0.012452000000000523,0.08952700000000019,600.0,600.0
3.86,0.11,0.21,9.81,-0.001300000000000399,0.07410000000000007,37.86660000000003,-0.012469000000000532,0.09096900000000019,600.0,600.0
3.88,0.02,0.25,9.81,-3.9768535686768303e-16,0.07870000000000008,38.062800000000024,-0.01248200000000054,0.09249700000000019,600.0,600.0
3.9,0.14,-0.5,9.81,0.0015999999999996037,0.07620000000000007,38.25900000000002,-0.012466000000000548,0.0940460000000002,600.0,600.0
3.92,-0.02,-0.14,9.81,0.002799999999999605,0.06980000000000007,38.45520000000002,-0.012422000000000556,0.0955060000000002,600.0,600.0
3.94,0.11,0.0,9.81,0.0036999999999996055,0.06840000000000007,38.65140000000002,-0.012357000000000564,0.09688800000000021,600.0,600.0
3.96,0.4,-0.03,9.81,0.00879999999999961,0.06810000000000008,38.847600000000014,-0.012232000000000572,0.09825300000000022,600.0,600.0
3.98,0.07,-0.22,9.81,0.013499999999999615,0.06560000000000007,39.04380000000001,-0.01200900000000058,0.09959000000000022,600.0,600.0
4.0,0.17,-0.04,9.81,0.015899999999999616,0.06300000000000007,39.24000000000001,-0.011715000000000588,0.10087600000000023,600.0,600.0
4.02,0.08,0.03,9.81,0.018399999999999563,0.06290000000000007,39.43620000000001,-0.011372000000000604,0.1021350000000002,600.0,600.0
4.04,-0.02,0.04,9.81,0.018999999999999576,0.06360000000000009,39.63240000000001,-0.010998000000000605,0.10340000000000023,600.0,600.0
4.06,-0.04,0.1,9.81,0.01839999999999959,0.06500000000000006,39.82860000000001,-0.01062400000000062,0.1046860000000002,600.0,600.0
4.08,0.21,0.26,9.81,0.02009999999999963,0.06860000000000015,40.02480000000001,-0.01023900000000062,0.10602200000000023,600.0,600.0
4.1,0.12,0.21,9.81,0.023399999999999557,0.07330000000000005,40.22100000000001,-0.009804000000000637,0.1074410000000002,600.0,600.0
4.12,-0.32,-0.4,9.81,0.02139999999999951,0.0714,40.417200000000015,-0.009356000000000636,0.10888800000000023,600.0,600.0
4.14,-0.3,-0.13,9.81,0.015199999999999641,0.06610000000000012,40.61340000000001,-0.008990000000000652,0.11026300000000021,600.0,600.0
4.16,0.19,0.07,9.81,0.014099999999999616,0.0655000000000001,40.80960000000002,-0.008697000000000652,0.11157900000000025,600.0,600.0
4.18,-0.21,-0.21,9.81,0.013899999999999621,0.06410000000000013,41.005800000000015,-0.008417000000000665,0.11287500000000023,600.0,600.0
4.2,-0.16,-0.18,9.81,0.010199999999999536,0.06020000000000004,41.20200000000002,-0.008176000000000669,0.11411800000000026,600.0,600.0
4.22,-0.12,-0.11,9.81,0.007399999999999595,0.0573000000000001,41.39820000000002,-0.008000000000000682,0.11529300000000024,600.0,600.0
4.24,-0.04,0.12,9.81,0.005799999999999558,0.057400000000000104,41.59440000000002,-0.007868000000000687,0.11644000000000027,600.0,600.0
4.26,0.04,-0.1,9.81,0.005799999999999558,0.0576000000000001,41.79060000000002,-0.0077520000000006984,0.11759000000000025,600.0,600.0
4.28,-0.1,0.09,9.81,0.005199999999999544,0.0575000000000001,41.986800000000024,-0.007642000000000705,0.11874100000000028,600.0,600.0
4.3,-0.26,0.14,9.81,0.0015999999999996213,0.05980000000000005,42.18300000000002,-0.007574000000000715,0.11991400000000026,600.0,600.0
4.32,0.06,0.41,9.81,-0.0004000000000004252,0.06530000000000018,42.379200000000026,-0.007562000000000723,0.12116500000000029,600.0,600.0
4.34,-0.18,-0.1,9.81,-0.0016000000000003995,0.06840000000000011,42.57540000000002,-0.0075820000000007305,0.12250200000000026,600.0,600.0
4.36,0.31,-0.01,9.81,-0.0003000000000003694,0.06730000000000008,42.77160000000003,-0.007601000000000738,0.1238590000000003,600.0,600.0
4.38,0.23,0.24,9.81,0.0050999999999995155,0.06960000000000004,42.967800000000025,-0.0075530000000007475,0.12522800000000028,600.0,600.0
4.4,0.08,-0.24,9.81,0.008199999999999586,0.06960000000000004,43.16400000000003,-0.007420000000000753,0.12662000000000032,600.0,600.0
4.42,0.3,-0.02,9.81,0.011999999999999504,0.06700000000000009,43.36020000000003,-0.007218000000000766,0.1279860000000003,600.0,600.0
4.44,-0.05,-0.25,9.81,0.014499999999999562,0.06430000000000002,43.55640000000003,-0.006953000000000769,0.12929900000000033,600.0,600.0
4.46,0.04,0.39,9.81,0.014399999999999564,0.0657,43.75260000000003,-0.006664000000000784,0.1305990000000003,600.0,600.0
4.48,0.29,0.12,9.81,0.01769999999999964,0.07080000000000011,43.948800000000034,-0.006343000000000785,0.13196400000000033,600.0,600.0
4.5,0.15,-0.16,9.81,0.022099999999999544,0.07040000000000012,44.14500000000003,-0.005945000000000801,0.1333760000000003,600.0,600.0
4.52,0.07,-0.2,9.81,0.024299999999999496,0.06680000000000019,44.34120000000003,-0.00548100000000082,0.13474800000000028,600.0,600.0
4.54,0.34,0.0,9.81,0.028399999999999592,0.06480000000000015,44.537400000000034,-0.004954000000000817,0.13606400000000032,600.0,600.0
4.56,0.02,-0.23,9.81,0.031999999999999515,0.0625000000000002,44.73360000000003,-0.004350000000000839,0.1373370000000003,600.0,600.0
4.58,0.11,0.2,9.81,0.033299999999999545,0.062200000000000186,44.929800000000036,-0.0036970000000008337,0.13858400000000032,600.0,600.0
4.6,0.12,-0.3,9.81,0.03559999999999949,0.061200000000000206,45.12600000000003,-0.003008000000000858,0.1398180000000003,600.0,600.0
4.62,0.09,-0.12,9.81,0.03769999999999954,0.057000000000000106,45.32220000000004,-0.002275000000000851,0.14100000000000035,600.0,600.0
4.64,-0.09,-0.24,9.81,0.03769999999999954,0.05340000000000018,45.518400000000035,-0.0015210000000008763,0.1421040000000003,600.0,600.0
4.66,-0.1,-0.11,9.81,0.0357999999999995,0.049900000000000104,45.71460000000004,-0.0007860000000008689,0.14313700000000035,600.0,600.0
4.68,-0.16,0.09,9.81,0.033199999999999556,0.049700000000000105,45.91080000000004,-9.6000000000893e-05,0.14413300000000032,600.0,600.0
4.7,0.22,-0.06,9.81,0.03379999999999957,0.050000000000000114,46.10700000000004,0.0005739999999991137,0.14513000000000034,600.0,600.0
4.72,-0.19,0.32,9.81,0.03409999999999957,0.052600000000000056,46.30320000000004,0.0012529999999990908,0.1461560000000003,600.0,600.0
4.74,0.3,0.24,9.81,0.03519999999999959,0.05820000000000019,46.499400000000044,0.0019459999999990984,0.14726400000000034,600.0,600.0
4.76,0.11,0.09,9.81,0.0392999999999995,0.06150000000000012,46.69560000000004,0.0026909999999990735,0.14846100000000031,600.0,600.0
4.78,-0.13,-0.26,9.81,0.039099999999999496,0.059800000000000075,46.891800000000046,0.0034749999999990817,0.14967400000000033,600.0,600.0
4.8,0.4,0.03,9.81,0.04179999999999944,0.05750000000000013,47.088000000000044,0.004283999999999054,0.15084700000000031,600.0,600.0
4.82,-0.08,-0.3,9.81,0.04499999999999951,0.054800000000000064,47.28420000000005,0.005151999999999064,0.15197000000000035,600.0,600.0
4.84,-0.0,-0.12,9.81,0.04419999999999953,0.05060000000000015,47.480400000000046,0.0060439999999990345,0.15302400000000033,600.0,600.0
4.86,-0.38,0.02,9.81,0.04039999999999944,0.04960000000000013,47.67660000000005,0.006889999999999044,0.15402600000000036,600.0,600.0
4.88,-0.04,0.09,9.81,0.03619999999999953,0.050700000000000106,47.87280000000005,0.007655999999999017,0.15502900000000033,600.0,600.0
4.9,-0.26,-0.02,9.81,0.03319999999999946,0.05140000000000012,48.06900000000005,0.008349999999999023,0.15605000000000036,600.0,600.0
4.92,0.17,-0.04,9.81,0.032299999999999475,0.05080000000000013,48.26520000000005,0.009004999999998998,0.15707200000000032,600.0,600.0
4.94,0.16,0.25,9.81,0.03559999999999955,0.052900000000000176,48.461400000000054,0.009683999999999004,0.15810900000000036,600.0,600.0
4.96,-0.04,0.01,9.81,0.03679999999999952,0.05550000000000012,48.65760000000005,0.010407999999998979,0.15919300000000033,600.0,600.0
4.98,-0.15,-0.06,9.81,0.03489999999999948,0.055000000000000104,48.85380000000006,0.011124999999998985,0.16029800000000036,600.0,600.0
5.0,0.28,-0.16,9.81,0.036199999999999455,0.05280000000000015,49.050000000000054,0.011835999999998958,0.16137600000000032,600.0,600.0
5.02,-0.07,-0.16,9.81,0.03829999999999941,0.04960000000000022,49.24620000000005,0.012580999999998932,0.1624000000000003,600.0,600.0
5.04,0.3,0.03,9.81,0.04059999999999946,0.04830000000000019,49.442400000000056,0.013369999999998938,0.16337900000000033,600.0,600.0
5.06,-0.29,-0.06,9.81,0.04069999999999946,0.048000000000000195,49.638600000000054,0.01418299999999891,0.16434200000000032,600.0,600.0
5.08,0.0,0.21,9.81,0.03779999999999939,0.04950000000000023,49.83480000000006,0.014967999999998916,0.16531700000000035,600.0,600.0
5.1,0.25,0.12,9.81,0.040299999999999336,0.05280000000000016,50.031000000000056,0.015748999999998885,0.16634000000000032,600.0,600.0
5.12,0.13,0.38,9.81,0.044099999999999424,0.057800000000000275,50.22720000000006,0.016592999999998893,0.16744600000000034,600.0,600.0
5.14,-0.16,0.24,9.81,0.04379999999999943,0.06400000000000014,50.42340000000006,0.017471999999998863,0.1686640000000003,600.0,600.0
5.16,-0.05,0.17,9.81,0.04169999999999938,0.06810000000000023,50.61960000000006,0.018326999999998872,0.16998500000000036,600.0,600.0
5.18,-0.06,-0.16,9.81,0.04059999999999941,0.06820000000000023,50.81580000000006,0.01914999999999884,0.17134800000000033,600.0,600.0
5.2,-0.14,0.15,9.81,0.038599999999999364,0.06810000000000023,51.012000000000064,0.019941999999998846,0.17271100000000036,600.0,600.0
5.22,0.3,0.02,9.81,0.04019999999999933,0.0698000000000002,51.20820000000006,0.020729999999998815,0.17409000000000033,600.0,600.0
5.24,-0.3,0.24,9.81,0.04019999999999933,0.07240000000000026,51.40440000000007,0.02153399999999882,0.17551200000000036,600.0,600.0
5.26,0.27,-0.07,9.81,0.03989999999999933,0.07410000000000022,51.600600000000064,0.02233499999999879,0.17697700000000033,600.0,600.0
5.28,0.4,-0.1,9.81,0.04659999999999949,0.07240000000000019,51.79680000000007,0.023199999999998798,0.17844200000000038,600.0,600.0
5.3,-0.06,0.4,9.81,0.04999999999999942,0.07540000000000012,51.993000000000066,0.024165999999998765,0.17992000000000036,600.0,600.0
5.32,0.08,0.12,9.81,0.050199999999999426,0.08060000000000024,52.18920000000007,0.025167999999998775,0.1814800000000004,600.0,600.0
5.34,0.2,-0.1,9.81,0.05299999999999937,0.08080000000000023,52.38540000000007,0.02619999999999874,0.18309400000000037,600.0,600.0
5.36,-0.07,-0.07,9.81,0.0542999999999994,0.0791000000000002,52.58160000000007,0.027272999999998753,0.1846930000000004,600.0,600.0
5.38,-0.33,-0.04,9.81,0.050299999999999484,0.07800000000000022,52.77780000000007,0.02831899999999872,0.18626400000000037,600.0,600.0
5.4,0.26,0.48,9.81,0.04959999999999947,0.08240000000000032,52.974000000000075,0.029317999999998734,0.18786800000000042,600.0,600.0
5.42,-0.12,-0.35,9.81,0.05099999999999944,0.08370000000000029,53.17020000000007,0.030323999999998703,0.1895290000000004,600.0,600.0
5.44,-0.18,0.27,9.81,0.04799999999999937,0.08290000000000027,53.36640000000008,0.03131399999999871,0.19119500000000045,600.0,600.0
5.46,0.15,0.13,9.81,0.047699999999999375,0.08690000000000019,53.562600000000074,0.032270999999998676,0.19289300000000043,600.0,600.0
5.48,-0.1,0.25,9.81,0.04819999999999939,0.09070000000000027,53.75880000000008,0.033229999999998684,0.19466900000000048,600.0,600.0
5.5,-0.32,-0.3,9.81,0.04399999999999948,0.09020000000000028,53.95500000000008,0.034151999999998656,0.19647800000000046,600.0,600.0
5.52,0.09,-0.13,9.81,0.04169999999999953,0.08590000000000036,54.151200000000074,0.035008999999998625,0.19823900000000041,600.0,600.0
5.54,0.18,0.07,9.81,0.04439999999999959,0.08530000000000035,54.34740000000008,0.03586999999999864,0.19995100000000046,600.0,600.0
5.56,-0.48,0.27,9.81,0.04139999999999966,0.08870000000000028,54.543600000000076,0.036727999999998616,0.20169100000000043,600.0,600.0
5.58,0.04,-0.01,9.81,0.03699999999999956,0.09130000000000034,54.73980000000008,0.03751199999999862,0.20349100000000048,600.0,600.0
5.6,-0.08,0.01,9.81,0.03659999999999957,0.09130000000000034,54.93600000000008,0.038247999999998596,0.20531700000000044,600.0,600.0
5.62,0.03,-0.24,9.81,0.036099999999999556,0.08900000000000029,55.13220000000008,0.0389749999999986,0.2071200000000005,600.0,600.0
5.64,0.4,0.15,9.81,0.040399999999999464,0.0881000000000003,55.32840000000008,0.039739999999998575,0.20889100000000047,600.0,600.0
5.66,-0.26,0.06,9.81,0.0417999999999995,0.09020000000000035,55.524600000000085,0.040561999999998585,0.2106740000000005,600.0,600.0
5.68,-0.09,-0.07,9.81,0.03829999999999957,0.09010000000000035,55.72080000000008,0.04136299999999856,0.21247700000000047,600.0,600.0
5.7,0.02,-0.14,9.81,0.03759999999999956,0.0880000000000003,55.91700000000009,0.04212199999999857,0.21425800000000053,600.0,600.0
5.72,0.11,-0.17,9.81,0.03889999999999953,0.08490000000000036,56.113200000000084,0.042886999999998544,0.2159870000000005,600.0,600.0
5.74,0.05,-0.37,9.81,0.04049999999999957,0.07950000000000024,56.30940000000009,0.043680999999998554,0.21763100000000055,600.0,600.0
5.76,0.16,0.23,9.81,0.04259999999999953,0.07810000000000027,56.505600000000086,0.044511999999998525,0.2192070000000005,600.0,600.0
5.78,-0.49,0.28,9.81,0.03929999999999945,0.08320000000000038,56.70180000000009,0.04533099999999853,0.22082000000000054,600.0,600.0
5.8,0.25,-0.02,9.81,0.0368999999999995,0.08580000000000033,56.89800000000009,0.0460929999999985,0.2225100000000005,600.0,600.0
5.82,-0.12,0.31,9.81,0.03819999999999953,0.0887000000000004,57.09420000000009,0.04684399999999851,0.22425500000000056,600.0,600.0
5.84,0.12,-0.13,9.81,0.03819999999999953,0.09050000000000037,57.29040000000009,0.047607999999998485,0.22604700000000053,600.0,600.0
5.86,0.3,0.01,9.81,0.04239999999999963,0.08930000000000034,57.486600000000095,0.04841399999999849,0.22784500000000057,600.0,600.0
5.88,-0.01,-0.04,9.81,0.04529999999999957,0.08900000000000034,57.68280000000009,0.04929099999999847,0.22962800000000055,600.0,600.0
5.9,0.32,-0.15,9.81,0.04839999999999964,0.0871000000000003,57.8790000000001,0.05022799999999848,0.2313890000000006,600.0,600.0
5.92,-0.11,-0.02,9.81,0.050499999999999594,0.08540000000000034,58.075200000000095,0.05121699999999845,0.23311400000000057,600.0,600.0
5.94,0.04,-0.24,9.81,0.04979999999999958,0.08280000000000028,58.2714000000001,0.05221999999999847,0.23479600000000062,600.0,600.0
5.96,0.24,0.14,9.81,0.05259999999999952,0.0818000000000003,58.4676000000001,0.05324399999999844,0.2364420000000006,600.0,600.0
5.98,0.18,0.13,9.81,0.05679999999999962,0.08450000000000037,58.6638000000001,0.05433799999999846,0.23810500000000065,600.0,600.0
6.0,-0.03,-0.01,9.81,0.05829999999999959,0.08570000000000035,58.8600000000001,0.05548899999999842,0.23980700000000063,600.0,600.0
6.02,-0.05,0.12,9.81,0.05749999999999961,0.08680000000000032,59.056200000000096,0.056646999999998386,0.2415320000000006,600.0,600.0
6.04,0.26,0.05,9.81,0.05959999999999965,0.08850000000000036,59.2524000000001,0.057817999999998405,0.24328500000000067,600.0,600.0
6.06,0.05,0.22,9.81,0.06269999999999959,0.0912000000000003,59.4486000000001,0.05904099999999837,0.24508200000000063,600.0,600.0
6.08,-0.45,-0.01,9.81,0.058699999999999496,0.09330000000000034,59.6448000000001,0.06025499999999839,0.24692700000000067,600.0,600.0
6.1,0.16,0.02,9.81,0.05579999999999956,0.09340000000000034,59.8410000000001,0.06139999999999836,0.24879400000000065,600.0,600.0
6.12,0.39,0.31,9.81,0.06129999999999969,0.09670000000000042,60.037200000000105,0.06257099999999838,0.2506950000000007,600.0,600.0
6.14,0.04,0.4,9.81,0.0655999999999996,0.10380000000000027,60.2334000000001,0.06383999999999834,0.2527000000000007,600.0,600.0
6.16,0.43,-0.18,9.81,0.07029999999999971,0.10600000000000032,60.42960000000011,0.06519899999999837,0.25479800000000075,600.0,600.0
6.18,-0.09,0.02,9.81,0.07369999999999964,0.10440000000000035,60.625800000000105,0.06663899999999834,0.2569020000000007,600.0,600.0
6.2,-0.06,0.07,9.81,0.07219999999999961,0.10530000000000038,60.82200000000011,0.06809799999999837,0.25899900000000076,600.0,600.0
6.22,0.3,0.02,9.81,0.07459999999999956,0.10620000000000036,61.01820000000011,0.06956599999999832,0.26111400000000073,600.0,600.0
6.24,-0.08,0.15,9.81,0.0767999999999996,0.1079000000000004,61.21440000000011,0.07107999999999835,0.2632550000000008,600.0,600.0
6.26,0.24,-0.04,9.81,0.07839999999999957,0.10900000000000037,61.41060000000011,0.07263199999999831,0.26542400000000077,600.0,600.0
6.28,-0.0,0.02,9.81,0.08079999999999962,0.10880000000000037,61.60680000000011,0.07422399999999833,0.26760200000000084,600.0,600.0
6.3,0.05,0.09,9.81,0.08129999999999961,0.10990000000000034,61.80300000000011,0.07584499999999829,0.2697890000000008,600.0,600.0
6.32,0.48,-0.08,9.81,0.08659999999999973,0.11000000000000035,61.999200000000116,0.07752399999999832,0.27198800000000084,600.0,600.0
6.34,0.3,0.11,9.81,0.09439999999999957,0.11030000000000034,62.19540000000011,0.07933399999999827,0.2741910000000008,600.0,600.0
6.36,0.06,0.26,9.81,0.09799999999999966,0.11400000000000043,62.39160000000012,0.0812579999999983,0.27643400000000085,600.0,600.0
6.38,-0.1,-0.2,9.81,0.09759999999999966,0.11460000000000042,62.587800000000115,0.08321399999999826,0.2787200000000008,600.0,600.0
6.4,-0.15,-0.15,9.81,0.0950999999999996,0.11110000000000034,62.78400000000012,0.0851409999999983,0.28097700000000086,600.0,600.0
6.42,-0.03,0.28,9.81,0.09329999999999963,0.1124000000000003,62.98020000000012,0.08702499999999826,0.2832120000000008,600.0,600.0
6.44,0.05,-0.26,9.81,0.09349999999999964,0.11260000000000031,63.17640000000012,0.08889299999999829,0.2854620000000009,600.0,600.0
6.46,-0.08,0.23,9.81,0.09319999999999964,0.11230000000000032,63.37260000000012,0.09075999999999824,0.2877110000000008,600.0,600.0
6.48,0.04,0.17,9.81,0.09279999999999963,0.1163000000000004,63.568800000000124,0.09261999999999829,0.2899970000000009,600.0,600.0
6.5,0.19,0.08,9.81,0.09509999999999959,0.11880000000000035,63.76500000000012,0.09449899999999824,0.29234800000000083,600.0,600.0
6.52,0.21,0.06,9.81,0.09909999999999951,0.12020000000000032,63.96120000000012,0.09644099999999818,0.2947380000000008,600.0,600.0
6.54,0.09,-0.19,9.81,0.10209999999999958,0.1189000000000003,64.15740000000012,0.09845299999999822,0.29712900000000086,600.0,600.0
6.56,0.17,-0.03,9.81,0.10469999999999953,0.11670000000000035,64.35360000000011,0.10052099999999817,0.29948500000000083,600.0,600.0
6.58,-0.07,-0.18,9.81,0.10569999999999956,0.1146000000000003,64.54980000000012,0.1026249999999982,0.3017980000000009,600.0,600.0
6.6,-0.08,-0.12,9.81,0.10419999999999958,0.11160000000000037,64.74600000000011,0.10472399999999815,0.3040600000000009,600.0,600.0
6.62,-0.07,0.17,9.81,0.10269999999999956,0.11210000000000038,64.94220000000011,0.1067929999999982,0.30629700000000093,600.0,600.0
6.64,0.25,-0.35,9.81,0.10449999999999952,0.11030000000000043,65.1384000000001,0.10886499999999814,0.3085210000000009,600.0,600.0
6.66,-0.21,0.1,9.81,0.10489999999999954,0.10780000000000037,65.33460000000011,0.11095899999999818,0.3107020000000009,600.0,600.0
6.68,-0.14,-0.33,9.81,0.10139999999999962,0.10550000000000041,65.5308000000001,0.11302199999999814,0.31283500000000086,600.0,600.0
6.7,-0.25,0.31,9.81,0.09749999999999953,0.10530000000000041,65.7270000000001,0.11501099999999817,0.3149430000000009,600.0,600.0
6.72,-0.09,-0.06,9.81,0.0940999999999996,0.10780000000000035,65.9232000000001,0.11692699999999812,0.31707400000000086,600.0,600.0
6.74,0.03,-0.21,9.81,0.09349999999999958,0.10510000000000029,66.1194000000001,0.11880299999999815,0.3192030000000009,600.0,600.0
6.76,0.17,-0.35,9.81,0.09549999999999954,0.09950000000000041,66.31560000000009,0.1206929999999981,0.32124900000000084,600.0,600.0
6.78,0.05,0.09,9.81,0.09769999999999959,0.09690000000000035,66.5118000000001,0.12262499999999812,0.3232130000000009,600.0,600.0
6.8,0.19,-0.04,9.81,0.10009999999999954,0.09740000000000033,66.70800000000008,0.12460299999999808,0.3251560000000009,600.0,600.0
6.82,0.09,0.23,9.81,0.1028999999999996,0.09930000000000037,66.90420000000009,0.1266329999999981,0.32712300000000094,600.0,600.0
6.84,-0.04,-0.15,9.81,0.10339999999999959,0.10010000000000036,67.10040000000008,0.12869599999999806,0.3291170000000009,600.0,600.0
6.86,0.05,-0.08,9.81,0.10349999999999959,0.0978000000000003,67.29660000000008,0.1307649999999981,0.33109600000000095,600.0,600.0
6.88,-0.09,-0.03,9.81,0.1030999999999996,0.09670000000000033,67.49280000000007,0.13283099999999806,0.3330410000000009,600.0,600.0
6.9,-0.1,-0.14,9.81,0.10119999999999955,0.09500000000000029,67.68900000000008,0.1348739999999981,0.334958000000001,600.0,600.0
6.92,-0.28,-0.06,9.81,0.09739999999999964,0.09300000000000033,67.88520000000007,0.13685999999999807,0.33683800000000097,600.0,600.0
6.94,0.25,-0.14,9.81,0.09709999999999963,0.09100000000000029,68.08140000000007,0.1388049999999981,0.33867800000000103,600.0,600.0
6.96,0.03,-0.14,9.81,0.09989999999999957,0.08820000000000035,68.27760000000006,0.14077499999999804,0.340470000000001,600.0,600.0
6.98,-0.28,0.44,9.81,0.09739999999999951,0.09120000000000042,68.47380000000007,0.14274799999999807,0.34226400000000107,600.0,600.0
7.0,0.22,0.0,9.81,0.09679999999999953,0.09560000000000032,68.67000000000006,0.14468999999999801,0.34413200000000105,600.0,600.0
7.02,-0.44,0.03,9.81,0.09459999999999957,0.09590000000000032,68.86620000000005,0.14660399999999796,0.346047000000001,600.0,600.0
7.04,-0.13,-0.21,9.81,0.08889999999999944,0.09410000000000028,69.06240000000005,0.148438999999998,0.34794700000000106,600.0,600.0
7.06,0.41,-0.01,9.81,0.09169999999999938,0.09190000000000033,69.25860000000004,0.15024499999999794,0.34980700000000103,600.0,600.0
7.08,-0.08,-0.21,9.81,0.09499999999999946,0.08970000000000028,69.45480000000005,0.15211199999999797,0.3516230000000011,600.0,600.0
7.1,0.06,-0.04,9.81,0.09479999999999947,0.08720000000000033,69.65100000000004,0.15400999999999793,0.35339200000000104,600.0,600.0
7.12,0.11,0.0,9.81,0.0964999999999995,0.08680000000000032,69.84720000000004,0.15592299999999795,0.35513200000000106,600.0,600.0
7.14,-0.12,0.06,9.81,0.0963999999999995,0.08740000000000031,70.04340000000003,0.1578519999999979,0.356874000000001,600.0,600.0
7.16,-0.19,0.08,9.81,0.09329999999999943,0.08880000000000034,70.23960000000004,0.15974899999999795,0.35863600000000107,600.0,600.0
7.18,-0.28,0.06,9.81,0.08859999999999953,0.09020000000000031,70.43580000000003,0.1615679999999979,0.360426000000001,600.0,600.0
7.2,0.07,-0.29,9.81,0.08649999999999948,0.08790000000000026,70.63200000000003,0.16331899999999794,0.36220700000000106,600.0,600.0
7.22,-0.02,-0.26,9.81,0.08699999999999947,0.08240000000000038,70.82820000000002,0.1650539999999979,0.363910000000001,600.0,600.0
7.24,0.15,-0.07,9.81,0.08829999999999949,0.0791000000000003,71.02440000000003,0.16680699999999793,0.36552500000000104,600.0,600.0
7.26,-0.45,0.15,9.81,0.08529999999999956,0.07990000000000028,71.22060000000002,0.1685429999999979,0.367115000000001,600.0,600.0
7.28,0.54,-0.16,9.81,0.08619999999999958,0.07980000000000027,71.41680000000002,0.1702579999999979,0.36871200000000104,600.0,600.0
7.3,0.31,0.21,9.81,0.0946999999999994,0.08030000000000026,71.61300000000001,0.17206699999999786,0.370313000000001,600.0,600.0
7.32,-0.05,0.1,9.81,0.09729999999999946,0.08340000000000033,71.80920000000002,0.1739869999999979,0.37195000000000106,600.0,600.0
7.34,0.19,0.14,9.81,0.09869999999999943,0.08580000000000028,72.00540000000001,0.17594699999999783,0.37364200000000103,600.0,600.0
7.36,-0.07,-0.0,9.81,0.09989999999999946,0.0872000000000003,72.20160000000001,0.17793299999999787,0.3753720000000011,600.0,600.0
7.38,0.16,0.09,9.81,0.10079999999999945,0.08810000000000029,72.3978,0.17993999999999782,0.37712500000000104,600.0,600.0
7.4,-0.15,-0.29,9.81,0.10089999999999945,0.08610000000000025,72.59400000000001,0.18195699999999787,0.37886700000000106,600.0,600.0
7.42,-0.28,-0.21,9.81,0.09659999999999953,0.08110000000000035,72.7902,0.18393199999999782,0.380539000000001,600.0,600.0
7.44,0.11,0.25,9.81,0.0948999999999995,0.08150000000000036,72.9864,0.18584699999999785,0.3821650000000011,600.0,600.0
7.46,0.08,-0.18,9.81,0.09679999999999946,0.08220000000000034,73.1826,0.1877639999999978,0.3838020000000011,600.0,600.0
7.48,0.05,0.17,9.81,0.09809999999999948,0.08210000000000034,73.3788,0.18971299999999783,0.38544500000000115,600.0,600.0
7.5,0.01,-0.17,9.81,0.09869999999999947,0.08210000000000034,73.57499999999999,0.19168099999999777,0.3870870000000011,600.0,600.0
7.52,0.07,-0.06,9.81,0.09949999999999945,0.07980000000000038,73.77119999999998,0.19366299999999773,0.3887060000000011,600.0,600.0
7.54,-0.11,0.1,9.81,0.09909999999999944,0.0802000000000004,73.96739999999998,0.19564899999999777,0.39030600000000115,600.0,600.0
7.56,-0.3,0.08,9.81,0.09499999999999953,0.08200000000000036,74.16359999999997,0.1975899999999977,0.3919280000000011,600.0,600.0
7.58,0.1,0.18,9.81,0.09299999999999949,0.08460000000000042,74.35979999999998,0.19946999999999773,0.39359400000000117,600.0,600.0
7.6,-0.11,0.03,9.81,0.09289999999999948,0.08670000000000037,74.55599999999997,0.20132899999999768,0.39530700000000113,600.0,600.0
7.62,0.16,0.01,9.81,0.0933999999999995,0.08710000000000039,74.75219999999997,0.2031919999999977,0.3970450000000012,600.0,600.0
7.64,0.01,-0.03,9.81,0.09509999999999946,0.0869000000000004,74.94839999999996,0.20507699999999765,0.39878500000000117,600.0,600.0
7.66,-0.31,0.54,9.81,0.09209999999999939,0.09200000000000051,75.14459999999997,0.2069489999999977,0.4005740000000012,600.0,600.0
7.68,0.04,-0.32,9.81,0.08939999999999945,0.09420000000000046,75.34079999999996,0.20876399999999765,0.4024360000000012,600.0,600.0
7.7,-0.04,-0.05,9.81,0.08939999999999945,0.09050000000000037,75.53699999999996,0.21055199999999769,0.4042830000000012,600.0,600.0
7.72,0.29,0.09,9.81,0.0918999999999994,0.09090000000000037,75.73319999999995,0.21236499999999764,0.4060970000000012,600.0,600.0
7.74,0.03,0.25,9.81,0.09509999999999948,0.09430000000000045,75.92939999999996,0.21423499999999768,0.4079490000000013,600.0,600.0
7.76,0.05,0.11,9.81,0.09589999999999946,0.09790000000000038,76.12559999999995,0.21614499999999762,0.40987100000000126,600.0,600.0
7.78,-0.02,0.08,9.81,0.09619999999999947,0.09980000000000042,76.32179999999995,0.21806599999999765,0.4118480000000013,600.0,600.0
7.8,0.06,0.19,9.81,0.09659999999999946,0.10250000000000035,76.51799999999994,0.2199939999999976,0.41387100000000127,600.0,600.0
7.82,0.0,0.3,9.81,0.09719999999999948,0.10740000000000047,76.71419999999995,0.22193199999999763,0.41597000000000134,600.0,600.0
7.84,0.23,-0.03,9.81,0.09949999999999944,0.1101000000000004,76.91039999999994,0.22389899999999757,0.4181450000000013,600.0,600.0
7.86,-0.05,0.0,9.81,0.10129999999999947,0.1098000000000004,77.10659999999994,0.2259069999999976,0.4203440000000014,600.0,600.0
7.88,0.11,0.01,9.81,0.10189999999999946,0.1099000000000004,77.30279999999993,0.22793899999999756,0.42254100000000133,600.0,600.0
7.9,0.14,-0.0,9.81,0.10439999999999952,0.1100000000000004,77.49899999999994,0.2300019999999976,0.4247400000000014,600.0,600.0
7.92,0.14,-0.16,9.81,0.10719999999999946,0.10840000000000044,77.69519999999993,0.23211799999999755,0.42692400000000136,600.0,600.0
7.94,-0.11,-0.43,9.81,0.10749999999999947,0.1025000000000003,77.89139999999993,0.2342649999999976,0.42903300000000144,600.0,600.0
7.96,-0.12,0.12,9.81,0.10519999999999952,0.09940000000000036,78.08759999999992,0.23639199999999752,0.4310520000000014,600.0,600.0
7.98,0.06,0.09,9.81,0.1045999999999995,0.10150000000000041,78.28379999999993,0.23848999999999757,0.4330610000000014,600.0,600.0
8.0,-0.21,0.15,9.81,0.10309999999999953,0.10390000000000035,78.47999999999992,0.2405669999999975,0.43511500000000136,600.0,600.0
8.02,0.15,0.2,9.81,0.10249999999999954,0.10740000000000027,78.67619999999991,0.24262299999999745,0.43722800000000134,600.0,600.0
8.04,0.08,-0.18,9.81,0.10479999999999949,0.10760000000000026,78.8723999999999,0.2446959999999974,0.4393780000000013,600.0,600.0
8.06,-0.25,-0.18,9.81,0.10309999999999937,0.10400000000000002,79.06859999999992,0.24677499999999752,0.4414940000000015,600.0,600.0
8.08,-0.15,0.08,9.81,0.09909999999999945,0.10300000000000005,79.26479999999991,0.24879699999999746,0.44356400000000146,600.0,600.0
8.1,-0.09,0.11,9.81,0.09669999999999951,0.10490000000000001,79.4609999999999,0.2507549999999974,0.4456430000000014,600.0,600.0
8.12,0.07,-0.21,9.81,0.09649999999999952,0.10390000000000003,79.65719999999989,0.25268699999999733,0.4477310000000014,600.0,600.0
8.14,-0.09,-0.5,9.81,0.0962999999999995,0.09679999999999955,79.85339999999991,0.2546149999999974,0.4497380000000015,600.0,600.0
8.16,0.16,0.4,9.81,0.09699999999999948,0.09579999999999958,80.0495999999999,0.2565479999999974,0.45166400000000145,600.0,600.0
8.18,0.02,-0.06,9.81,0.09879999999999944,0.09919999999999951,80.24579999999989,0.25850599999999735,0.4536140000000014,600.0,600.0
8.2,-0.34,0.11,9.81,0.09559999999999952,0.0996999999999995,80.44199999999988,0.2604499999999973,0.45560300000000137,600.0,600.0
8.22,0.28,0.06,9.81,0.09499999999999947,0.10139999999999962,80.6381999999999,0.2623559999999974,0.4576140000000015,600.0,600.0
8.24,-0.07,-0.19,9.81,0.09709999999999942,0.10009999999999965,80.83439999999989,0.2642769999999974,0.45962900000000145,600.0,600.0
8.26,0.25,0.3,9.81,0.09889999999999939,0.10119999999999962,81.03059999999988,0.26623699999999734,0.4616420000000014,600.0,600.0
8.28,0.1,-0.11,9.81,0.10239999999999931,0.10309999999999958,81.22679999999987,0.26824999999999727,0.46368500000000135,600.0,600.0
8.3,-0.0,0.03,9.81,0.10339999999999938,0.10229999999999953,81.42299999999989,0.2703079999999974,0.46573900000000146,600.0,600.0
8.32,-0.38,0.21,9.81,0.09959999999999947,0.10469999999999947,81.61919999999988,0.2723379999999973,0.4678090000000014,600.0,600.0
8.34,0.3,0.14,9.81,0.09879999999999949,0.1081999999999994,81.81539999999987,0.27432199999999723,0.46993800000000135,600.0,600.0
8.36,-0.22,-0.2,9.81,0.09959999999999947,0.1075999999999994,82.01159999999986,0.27630599999999716,0.4720960000000013,600.0,600.0
8.38,0.3,-0.07,9.81,0.10039999999999952,0.10489999999999922,82.20779999999988,0.2783059999999973,0.47422100000000145,600.0,600.0
8.4,0.07,0.07,9.81,0.10409999999999944,0.10489999999999922,82.40399999999987,0.28035099999999724,0.4763190000000014,600.0,600.0
8.42,0.08,0.24,9.81,0.10559999999999942,0.10799999999999915,82.60019999999986,0.2824479999999972,0.4784480000000013,600.0,600.0
8.44,-0.06,0.02,9.81,0.10579999999999941,0.1105999999999991,82.79639999999985,0.28456199999999715,0.4806340000000012,600.0,600.0
8.46,0.35,-0.3,9.81,0.1086999999999996,0.10779999999999891,82.99259999999987,0.28670699999999727,0.48281800000000136,600.0,600.0
8.48,-0.02,0.28,9.81,0.11199999999999953,0.10759999999999892,83.18879999999986,0.28891399999999723,0.4849720000000013,600.0,600.0
8.5,-0.08,0.03,9.81,0.11099999999999956,0.11069999999999885,83.38499999999985,0.2911439999999972,0.4871550000000012,600.0,600.0
8.52,-0.17,0.29,9.81,0.10849999999999961,0.11389999999999878,83.58119999999984,0.29333899999999713,0.48940100000000114,600.0,600.0
8.54,-0.28,-0.1,9.81,0.1039999999999997,0.11579999999999874,83.77739999999983,0.29546399999999706,0.4916980000000011,600.0,600.0
8.56,-0.3,-0.09,9.81,0.09819999999999932,0.11389999999999861,83.97359999999985,0.2974859999999972,0.4939950000000012,600.0,600.0
8.58,-0.3,0.25,9.81,0.09219999999999945,0.11549999999999858,84.16979999999984,0.29938999999999716,0.4962890000000011,600.0,600.0
8.6,0.05,0.12,9.81,0.0896999999999995,0.1191999999999985,84.36599999999983,0.3012089999999971,0.498636000000001,600.0,600.0
8.62,-0.11,-0.04,9.81,0.08909999999999951,0.11999999999999848,84.56219999999982,0.3029969999999971,0.5010280000000009,600.0,600.0
8.64,0.1,0.04,9.81,0.08899999999999951,0.11999999999999848,84.75839999999984,0.30477799999999716,0.5034280000000011,600.0,600.0
8.66,-0.36,-0.13,9.81,0.08639999999999956,0.1190999999999985,84.95459999999983,0.30653199999999714,0.505819000000001,600.0,600.0
8.68,0.1,-0.05,9.81,0.08379999999999961,0.11729999999999853,85.15079999999982,0.3082339999999971,0.5081830000000009,600.0,600.0
8.7,0.0,-0.43,9.81,0.08479999999999958,0.11249999999999863,85.34699999999981,0.3099199999999971,0.5104810000000009,600.0,600.0
8.72,-0.27,0.0,9.81,0.0820999999999994,0.10819999999999834,85.54319999999983,0.3115889999999972,0.5126880000000009,600.0,600.0
8.74,0.39,0.03,9.81,0.08329999999999937,0.10849999999999833,85.73939999999982,0.3132429999999971,0.5148550000000008,600.0,600.0
8.76,0.03,0.06,9.81,0.08749999999999929,0.10939999999999832,85.93559999999981,0.31495099999999704,0.5170340000000008,600.0,600.0
8.78,-0.01,-0.19,9.81,0.08769999999999928,0.10809999999999835,86.1317999999998,0.316702999999997,0.5192090000000007,600.0,600.0
8.8,0.2,0.05,9.81,0.0895999999999994,0.10669999999999825,86.32799999999982,0.3184759999999971,0.5213570000000008,600.0,600.0
8.82,-0.15,-0.13,9.81,0.09009999999999939,0.10589999999999827,86.52419999999981,0.32027299999999703,0.5234830000000008,600.0,600.0
8.84,-0.36,-0.1,9.81,0.08499999999999949,0.10359999999999832,86.7203999999998,0.322023999999997,0.5255780000000008,600.0,600.0
8.86,0.11,0.15,9.81,0.08249999999999955,0.1040999999999983,86.91659999999979,0.32369899999999696,0.5276550000000007,600.0,600.0
8.88,0.07,-0.01,9.81,0.08429999999999967,0.1054999999999984,87.11279999999981,0.3253669999999971,0.5297510000000007,600.0,600.0
8.9,-0.02,-0.32,9.81,0.08479999999999965,0.10219999999999847,87.3089999999998,0.327057999999997,0.5318280000000006,600.0,600.0
8.92,-0.38,-0.19,9.81,0.08079999999999973,0.09709999999999858,87.50519999999979,0.32871399999999695,0.5338210000000005,600.0,600.0
8.94,-0.03,-0.02,9.81,0.07669999999999982,0.09499999999999863,87.70139999999978,0.3302889999999969,0.5357420000000005,600.0,600.0
8.96,-0.24,0.07,9.81,0.07399999999999964,0.09549999999999866,87.8975999999998,0.331795999999997,0.5376470000000007,600.0,600.0
8.98,0.29,0.03,9.81,0.07449999999999962,0.09649999999999863,88.09379999999979,0.33328099999999694,0.5395670000000006,600.0,600.0
9.0,-0.04,0.27,9.81,0.07699999999999957,0.09949999999999856,88.28999999999978,0.3347959999999969,0.5415270000000005,600.0,600.0
9.02,0.46,0.05,9.81,0.08119999999999948,0.10269999999999849,88.48619999999977,0.33637799999999685,0.5435490000000005,600.0,600.0
9.04,-0.19,-0.05,9.81,0.08389999999999942,0.10269999999999849,88.68239999999976,0.3380289999999968,0.5456030000000004,600.0,600.0
9.06,0.02,-0.07,9.81,0.0821999999999993,0.10149999999999841,88.87859999999978,0.3396899999999969,0.5476450000000005,600.0,600.0
9.08,-0.33,0.2,9.81,0.07909999999999937,0.10279999999999838,89.07479999999977,0.34130299999999686,0.5496880000000004,600.0,600.0
9.1,0.08,0.35,9.81,0.07659999999999942,0.10829999999999826,89.27099999999976,0.34285999999999683,0.5517990000000004,600.0,600.0
9.12,-0.11,0.11,9.81,0.07629999999999942,0.11289999999999815,89.46719999999975,0.3443889999999968,0.5540110000000003,600.0,600.0
9.14,-0.18,-0.16,9.81,0.07339999999999923,0.11239999999999813,89.66339999999977,0.34588599999999686,0.5562640000000003,600.0,600.0
9.16,-0.01,0.12,9.81,0.07149999999999927,0.11199999999999813,89.85959999999976,0.34733499999999684,0.5585080000000002,600.0,600.0
9.18,-0.18,0.25,9.81,0.06959999999999932,0.11569999999999805,90.05579999999975,0.3487459999999968,0.5607850000000001,600.0,600.0
9.2,-0.03,0.07,9.81,0.06749999999999937,0.11889999999999798,90.25199999999974,0.35011699999999674,0.563131,600.0,600.0
9.22,0.15,-0.14,9.81,0.06869999999999944,0.11819999999999793,90.44819999999976,0.3514789999999968,0.5655020000000002,600.0,600.0
9.24,0.17,-0.13,9.81,0.07189999999999938,0.115499999999998,90.64439999999975,0.3528849999999968,0.5678390000000001,600.0,600.0
9.26,-0.11,-0.15,9.81,0.07249999999999937,0.11269999999999805,90.84059999999974,0.35432899999999673,0.570121,600.0,600.0
9.28,-0.09,0.57,9.81,0.07049999999999941,0.11689999999999796,91.03679999999973,0.35575899999999666,0.572417,600.0,600.0
9.3,0.04,0.11,9.81,0.06999999999999938,0.12369999999999842,91.23299999999975,0.35716399999999676,0.5748230000000001,600.0,600.0
9.32,-0.08,0.11,9.81,0.06959999999999938,0.12589999999999837,91.42919999999974,0.3585599999999967,0.577319,600.0,600.0
9.34,0.4,0.17,9.81,0.07279999999999931,0.12869999999999832,91.62539999999973,0.3599839999999967,0.579865,600.0,600.0
9.36,-0.08,0.25,9.81,0.07599999999999923,0.13289999999999821,91.82159999999972,0.36147199999999663,0.5824809999999999,600.0,600.0
9.38,0.07,-0.25,9.81,0.07589999999999923,0.13289999999999821,92.01779999999974,0.36299099999999673,0.5851390000000001,600.0,600.0
9.4,-0.2,0.21,9.81,0.07459999999999926,0.13249999999999823,92.21399999999973,0.3644959999999967,0.587793,600.0,600.0
9.42,-0.23,-0.36,9.81,0.07029999999999935,0.13099999999999826,92.41019999999972,0.3659449999999967,0.590428,600.0,600.0
9.44,-0.16,0.1,9.81,0.06639999999999943,0.12839999999999832,92.60639999999971,0.36731199999999664,0.5930219999999998,600.0,600.0
9.46,0.01,-0.1,9.81,0.06489999999999933,0.12839999999999832,92.80259999999973,0.3686249999999967,0.59559,600.0,600.0
9.48,-0.27,-0.06,9.81,0.06229999999999939,0.12679999999999836,92.99879999999972,0.36989699999999665,0.5981419999999998,600.0,600.0
9.5,-0.14,-0.15,9.81,0.058199999999999474,0.12469999999999841,93.19499999999971,0.3711019999999966,0.6006569999999998,600.0,600.0
9.52,-0.1,0.16,9.81,0.055799999999999524,0.12479999999999841,93.3911999999997,0.3722419999999966,0.6031519999999997,600.0,600.0
9.54,0.01,0.07,9.81,0.05489999999999954,0.12709999999999835,93.58739999999969,0.37334899999999654,0.6056709999999996,600.0,600.0
9.56,0.16,-0.23,9.81,0.05659999999999966,0.12549999999999825,93.78359999999971,0.37446399999999663,0.6081969999999998,600.0,600.0
9.58,-0.03,0.38,9.81,0.05789999999999963,0.12699999999999823,93.9797999999997,0.3756089999999966,0.6107219999999997,600.0,600.0
9.6,-0.34,0.12,9.81,0.054199999999999714,0.13199999999999812,94.17599999999969,0.37672999999999657,0.6133119999999995,600.0,600.0
9.62,-0.25,-0.38,9.81,0.048299999999999836,0.12939999999999818,94.37219999999968,0.37775499999999657,0.6159259999999994,600.0,600.0
9.64,-0.12,0.24,9.81,0.044599999999999584,0.1279999999999981,94.5683999999997,0.37868399999999663,0.6184999999999996,600.0,600.0
9.66,-0.05,0.01,9.81,0.04289999999999962,0.13049999999999803,94.76459999999969,0.3795589999999966,0.6210849999999996,600.0,600.0
9.68,-0.15,-0.29,9.81,0.04089999999999966,0.1276999999999981,94.96079999999968,0.38039699999999654,0.6236669999999994,600.0,600.0
9.7,0.09,0.06,9.81,0.04029999999999967,0.12539999999999815,95.15699999999967,0.3812089999999965,0.6261979999999994,600.0,600.0
9.72,0.41,0.04,9.81,0.04530000000000001,0.1263999999999982,95.35319999999969,0.3820649999999966,0.6287159999999995,600.0,600.0
9.74,0.01,-0.17,9.81,0.04949999999999992,0.12509999999999824,95.54939999999968,0.3830129999999966,0.6312309999999994,600.0,600.0
9.76,-0.11,-0.07,9.81,0.04849999999999994,0.1226999999999983,95.74559999999967,0.3839929999999966,0.6337089999999993,600.0,600.0
9.78,0.13,-0.06,9.81,0.04869999999999994,0.12139999999999833,95.94179999999966,0.38496499999999656,0.6361499999999992,600.0,600.0
9.8,-0.16,-0.14,9.81,0.048399999999999915,0.11939999999999819,96.13799999999968,0.3859359999999966,0.6385579999999993,600.0,600.0
9.82,0.16,0.18,9.81,0.048399999999999915,0.11979999999999819,96.33419999999967,0.3869039999999966,0.6409499999999992,600.0,600.0
9.84,0.18,-0.01,9.81,0.051799999999999846,0.12149999999999815,96.53039999999966,0.3879059999999966,0.6433629999999991,600.0,600.0
9.86,-0.06,-0.11,9.81,0.05299999999999982,0.12029999999999817,96.72659999999965,0.3889539999999966,0.645780999999999,600.0,600.0
9.88,-0.15,0.27,9.81,0.050899999999999675,0.12189999999999829,96.92279999999967,0.38999299999999665,0.6482029999999992,600.0,600.0
9.9,-0.27,0.2,9.81,0.04669999999999976,0.1265999999999982,97.11899999999966,0.3909689999999966,0.6506879999999992,600.0,600.0
9.92,0.01,-0.18,9.81,0.04409999999999982,0.1267999999999982,97.31519999999965,0.3918769999999966,0.6532219999999991,600.0,600.0
9.94,0.03,-0.55,9.81,0.04449999999999981,0.11949999999999834,97.51139999999964,0.3927629999999966,0.655684999999999,600.0,600.0
9.96,0.04,0.01,9.81,0.04519999999999986,0.11409999999999798,97.70759999999966,0.3936599999999966,0.6580209999999991,600.0,600.0
9.98,-0.2,-0.04,9.81,0.04359999999999989,0.11379999999999799,97.90379999999965,0.3945479999999966,0.660299999999999,600.0,600.0
10.0,0.17,-0.07,39.81,0.043299999999999894,0.11269999999999801,98.39999999999964,0.3954169999999966,0.662564999999999,600.0,600.0
10.02,-0.07,-0.2,39.51,0.044299999999999874,0.10999999999999807,99.19319999999962,0.39629299999999656,0.6647919999999988,605.0,605.0
10.04,-0.21,-0.16,39.21,0.04149999999999993,0.10639999999999815,99.9803999999996,0.39715099999999653,0.6669559999999988,610.0,610.0
10.06,-0.0,-0.09,38.91,0.03939999999999979,0.10389999999999798,100.76159999999966,0.3979599999999966,0.6690589999999988,615.0,615.0
10.08,0.08,0.02,38.61,0.04019999999999977,0.103199999999998,101.53679999999964,0.39875599999999656,0.6711299999999988,620.0,620.0
10.1,0.0,-0.02,38.31,0.04099999999999975,0.103199999999998,102.30599999999963,0.39956799999999654,0.6731939999999987,625.0,625.0
10.12,0.09,0.39,38.01,0.041899999999999736,0.10689999999999793,103.06919999999961,0.4003969999999965,0.6752949999999986,630.0,630.0
10.14,0.07,-0.09,37.71,0.043499999999999844,0.10989999999999812,103.82639999999967,0.4012509999999966,0.6774629999999987,635.0,635.0
10.16,0.09,-0.03,37.41,0.04509999999999981,0.10869999999999815,104.57759999999965,0.4021369999999966,0.6796489999999986,640.0,640.0
10.18,0.07,0.27,37.11,0.04669999999999977,0.11109999999999809,105.32279999999963,0.40305499999999655,0.6818469999999985,645.0,645.0
10.2,-0.08,0.12,36.81,0.046599999999999774,0.114999999999998,106.06199999999961,0.4039879999999965,0.6841079999999985,650.0,650.0
10.22,-0.52,-0.12,36.51,0.040599999999999366,0.114999999999998,106.79519999999967,0.40485999999999656,0.6864079999999986,655.0,655.0
10.24,0.65,0.01,36.21,0.04189999999999934,0.11389999999999803,107.52239999999965,0.4056849999999965,0.6886969999999984,660.0,660.0
10.26,-0.27,-0.31,35.91,0.04569999999999926,0.1108999999999981,108.24359999999963,0.4065609999999965,0.6909449999999984,665.0,665.0
10.28,0.22,-0.29,35.61,0.045199999999999275,0.10489999999999823,108.95879999999961,0.4074699999999965,0.6931029999999982,670.0,670.0
10.3,0.15,-0.02,35.31,0.04889999999999953,0.10179999999999802,109.66799999999967,0.4084109999999965,0.6951699999999984,675.0,675.0
10.32,-0.31,-0.23,35.01,0.047299999999999565,0.09929999999999807,110.37119999999965,0.4093729999999965,0.6971809999999983,680.0,680.0
10.34,0.11,-0.4,34.71,0.045299999999999604,0.09299999999999821,111.06839999999963,0.41029899999999647,0.6991039999999982,685.0,685.0
10.36,-0.25,-0.21,34.41,0.043899999999999634,0.08689999999999834,111.75959999999961,0.4111909999999964,0.700902999999998,690.0,690.0
10.38,-0.08,-0.15,34.11,0.040599999999999414,0.0832999999999981,112.44479999999966,0.41203599999999646,0.7026049999999981,695.0,695.0
10.4,0.19,-0.05,33.81,0.04169999999999939,0.08129999999999814,113.12399999999964,0.4128589999999964,0.7042509999999981,700.0,700.0
10.42,0.24,0.07,33.51,0.0459999999999993,0.08149999999999813,113.79719999999962,0.4137359999999964,0.705878999999998,705.0,705.0
10.44,0.2,-0.12,33.21,0.0503999999999992,0.08099999999999814,114.4643999999996,0.41469999999999635,0.7075039999999979,710.0,710.0
10.46,0.06,0.01,32.91,0.05299999999999938,0.07989999999999807,115.12559999999965,0.4157339999999964,0.709112999999998,715.0,715.0
10.48,-0.04,0.01,32.61,0.05319999999999938,0.08009999999999806,115.78079999999963,0.41679599999999634,0.7107129999999979,720.0,720.0
10.5,-0.49,0.42,32.31,0.04789999999999949,0.08439999999999798,116.42999999999961,0.4178069999999963,0.7123579999999978,725.0,725.0
10.52,-0.24,-0.03,32.01,0.04059999999999965,0.0882999999999979,117.0731999999996,0.4186919999999963,0.7140849999999977,730.0,730.0
10.54,0.09,0.1,31.71,0.039099999999999684,0.08899999999999787,117.7103999999996,0.4194889999999963,0.7158579999999977,735.0,735.0
10.56,-0.17,-0.47,31.41,0.038299999999999626,0.08529999999999763,118.34159999999964,0.42026299999999633,0.7176009999999977,740.0,740.0
10.58,0.31,0.02,31.11,0.0396999999999996,0.08079999999999772,118.96679999999964,0.42104299999999634,0.7192619999999976,745.0,745.0
10.6,0.06,0.17,30.81,0.043399999999999515,0.08269999999999768,119.58599999999963,0.4218739999999963,0.7208969999999976,750.0,750.0
10.62,-0.21,-0.11,30.51,0.04189999999999955,0.08329999999999767,120.19919999999962,0.4227269999999963,0.7225569999999975,755.0,755.0
10.64,0.16,0.18,30.21,0.041399999999999514,0.08399999999999772,120.80639999999966,0.42355999999999633,0.7242299999999975,760.0,760.0
10.66,-0.15,-0.0,29.91,0.04149999999999951,0.08579999999999768,121.40759999999965,0.4243889999999963,0.7259279999999974,765.0,765.0
10.68,-0.29,-0.27,29.61,0.037099999999999606,0.08309999999999775,122.00279999999964,0.42517499999999625,0.7276169999999973,770.0,770.0
10.7,-0.18,0.17,29.31,0.03239999999999971,0.08209999999999777,122.59199999999963,0.42586999999999625,0.7292689999999972,775.0,775.0
10.72,-0.08,-0.18,29.01,0.02979999999999953,0.08199999999999777,123.17519999999966,0.42649199999999626,0.7309099999999973,780.0,780.0
10.74,0.07,0.22,28.71,0.029699999999999532,0.08239999999999777,123.75239999999965,0.4270869999999962,0.7325539999999972,785.0,785.0
10.76,0.0,0.09,28.41,0.030399999999999518,0.0854999999999977,124.32359999999964,0.4276879999999962,0.734232999999997,790.0,790.0
10.78,-0.14,0.12,28.11,0.028999999999999547,0.08759999999999765,124.88879999999963,0.42828199999999617,0.735963999999997,795.0,795.0
10.8,0.09,0.12,27.81,0.028499999999999512,0.08999999999999782,125.44799999999967,0.4288569999999962,0.7377399999999971,800.0,800.0
10.82,-0.02,0.28,27.51,0.029199999999999497,0.09399999999999774,126.00119999999966,0.4294339999999962,0.739579999999997,805.0,805.0
10.84,0.11,0.03,27.21,0.030099999999999478,0.09709999999999767,126.54839999999965,0.43002699999999616,0.7414909999999969,810.0,810.0
10.86,0.08,0.14,26.91,0.03199999999999944,0.09879999999999764,127.08959999999963,0.43064799999999614,0.7434499999999968,815.0,815.0
10.88,0.46,0.04,26.61,0.0373999999999998,0.10059999999999776,127.62479999999967,0.4313419999999962,0.7454439999999969,820.0,820.0
10.9,0.03,0.04,26.31,0.0422999999999997,0.10139999999999774,128.15399999999966,0.43213899999999617,0.7474639999999968,825.0,825.0
10.92,-0.08,-0.3,26.01,0.04179999999999971,0.09879999999999779,128.67719999999966,0.43297999999999615,0.7494659999999967,830.0,830.0
10.94,0.06,0.12,25.71,0.041599999999999714,0.09699999999999782,129.19439999999966,0.43381399999999615,0.7514239999999967,835.0,835.0
10.96,0.3,0.07,25.41,0.045199999999999955,0.09889999999999795,129.7055999999997,0.4346819999999962,0.7533829999999967,840.0,840.0
10.98,-0.16,-0.04,25.11,0.046599999999999926,0.09919999999999794,130.2107999999997,0.43559999999999616,0.7553639999999966,845.0,845.0
11.0,0.18,0.2,24.81,0.046799999999999925,0.1007999999999979,130.7099999999997,0.43653399999999615,0.7573639999999965,850.0,850.0
11.02,0.14,0.05,24.51,0.04999999999999986,0.10329999999999785,131.2031999999997,0.4375019999999961,0.7594049999999964,855.0,855.0
11.04,-0.11,0.06,24.21,0.05029999999999985,0.10439999999999783,131.6903999999997,0.4385049999999961,0.7614819999999963,860.0,860.0
11.06,-0.21,0.09,23.91,0.047099999999999635,0.10589999999999793,132.17159999999973,0.4394789999999962,0.7635849999999964,865.0,865.0
11.08,-0.05,0.23,23.61,0.04449999999999969,0.10909999999999787,132.64679999999973,0.44039499999999615,0.7657349999999963,870.0,870.0
11.1,-0.25,0.33,23.31,0.04149999999999976,0.11469999999999775,133.11599999999973,0.4412549999999961,0.7679729999999962,875.0,875.0
11.12,-0.15,-0.12,23.01,0.037499999999999846,0.1167999999999977,133.57919999999973,0.4420449999999961,0.7702879999999962,880.0,880.0
11.14,0.25,0.6,22.71,0.038499999999999916,0.12159999999999802,134.03639999999976,0.4428049999999961,0.7726719999999964,885.0,885.0
11.16,-0.26,-0.15,22.41,0.03839999999999992,0.1260999999999979,134.48759999999976,0.4435739999999961,0.7751489999999963,890.0,890.0
11.18,-0.04,-0.07,22.11,0.03539999999999999,0.12389999999999796,134.93279999999976,0.44431199999999604,0.7776489999999963,895.0,895.0
11.2,-0.06,-0.3,21.81,0.03440000000000001,0.12019999999999803,135.37199999999976,0.445009999999996,0.7800899999999962,900.0,900.0
11.22,0.1,0.0,21.51,0.03480000000000003,0.11719999999999783,135.8051999999998,0.44570199999999605,0.7824639999999963,905.0,905.0
11.24,-0.17,-0.42,21.21,0.03410000000000005,0.11299999999999792,136.23239999999979,0.44639099999999604,0.7847659999999962,910.0,910.0
11.26,-0.24,0.16,20.91,0.030000000000000134,0.11039999999999797,136.65359999999978,0.44703199999999604,0.7869999999999961,915.0,915.0
11.28,-0.05,-0.33,20.61,0.027100000000000197,0.108699999999998,137.06879999999978,0.44760299999999603,0.7891909999999961,920.0,920.0
11.3,-0.26,-0.1,20.31,0.023999999999999987,0.10439999999999772,137.4779999999998,0.44811399999999607,0.7913219999999962,925.0,925.0
11.32,0.11,-0.17,20.01,0.02250000000000002,0.10169999999999778,137.8811999999998,0.44857899999999606,0.7933829999999961,930.0,930.0
11.34,-0.06,-0.03,19.71,0.02300000000000001,0.09969999999999782,138.2783999999998,0.44903399999999605,0.795396999999996,935.0,935.0
11.36,0.2,0.0,19.41,0.02439999999999998,0.09939999999999782,138.6695999999998,0.449507999999996,0.797387999999996,940.0,940.0
11.38,0.17,0.2,19.11,0.02810000000000023,0.10139999999999796,139.05479999999983,0.4500329999999961,0.7993959999999961,945.0,945.0
11.4,-0.29,0.66,18.81,0.026900000000000254,0.10999999999999778,139.43399999999983,0.45058299999999607,0.8015099999999961,950.0,950.0
11.42,-0.2,-0.21,18.51,0.02200000000000036,0.11449999999999769,139.80719999999982,0.4510719999999961,0.803754999999996,955.0,955.0
11.44,-0.05,0.14,18.21,0.019500000000000413,0.11379999999999771,140.17439999999982,0.4514869999999961,0.8060379999999959,960.0,960.0
11.46,-0.12,-0.12,17.91,0.017800000000000298,0.11399999999999773,140.53559999999985,0.4518599999999961,0.808315999999996,965.0,965.0
11.48,0.15,0.23,17.61,0.018100000000000293,0.1150999999999977,140.89079999999984,0.4522189999999961,0.810606999999996,970.0,970.0
11.5,0.38,-0.12,17.31,0.02340000000000018,0.11619999999999768,141.23999999999984,0.4526339999999961,0.8129199999999959,975.0,975.0
11.52,0.27,0.02,17.01,0.029900000000000045,0.11519999999999771,141.58319999999983,0.4531669999999961,0.8152339999999958,980.0,980.0
11.54,0.1,-0.4,16.71,0.03359999999999996,0.11139999999999779,141.92039999999983,0.4538019999999961,0.8174999999999957,985.0,985.0
11.56,-0.02,0.43,16.41,0.034400000000000014,0.11169999999999781,142.25159999999985,0.45448199999999617,0.8197309999999958,990.0,990.0
11.58,0.01,-0.21,16.11,0.03430000000000002,0.11389999999999777,142.57679999999985,0.45516899999999616,0.8219869999999957,995.0,995.0
11.6,-0.13,-0.05,15.81,0.033100000000000046,0.11129999999999782,142.89599999999984,0.45584299999999617,0.8242389999999956,1000.0,1000.0
11.62,0.06,0.07,15.51,0.03240000000000006,0.11149999999999781,143.20919999999984,0.45649799999999613,0.8264669999999955,1005.0,1005.0
11.64,0.41,0.12,15.21,0.037100000000000376,0.11339999999999793,143.51639999999986,0.4571929999999962,0.8287159999999956,1010.0,1010.0
11.66,0.23,0.05,14.91,0.04350000000000024,0.1150999999999979,143.81759999999986,0.45799899999999616,0.8310009999999954,1015.0,1015.0
11.68,-0.12,0.29,14.61,0.044600000000000216,0.11849999999999783,144.11279999999985,0.4588799999999961,0.8333369999999953,1020.0,1020.0
11.7,0.15,0.08,14.31,0.04490000000000021,0.12219999999999775,144.40199999999984,0.4597749999999961,0.8357439999999953,1025.0,1025.0
11.72,0.05,-0.01,14.01,0.046900000000000344,0.1228999999999978,144.68519999999987,0.4606929999999962,0.8381949999999954,1030.0,1030.0
11.74,0.07,-0.21,13.71,0.048100000000000316,0.12069999999999785,144.96239999999986,0.4616429999999962,0.8406309999999952,1035.0,1035.0
11.76,0.19,0.28,13.41,0.05070000000000026,0.12139999999999784,145.23359999999985,0.4626309999999962,0.8430519999999951,1040.0,1040.0
11.78,0.1,0.7,13.11,0.053600000000000196,0.13119999999999762,145.49879999999985,0.46367399999999614,0.8455779999999951,1045.0,1045.0
11.8,-0.24,-0.09,12.81,0.0522000000000001,0.13729999999999803,145.75799999999987,0.4647319999999962,0.8482629999999952,1050.0,1050.0
11.82,-0.11,0.11,12.51,0.048700000000000174,0.13749999999999804,146.01119999999986,0.4657409999999962,0.8510109999999951,1055.0,1055.0
11.84,-0.1,0.1,12.21,0.04660000000000022,0.139599999999998,146.25839999999985,0.46669399999999617,0.8537819999999949,1060.0,1060.0
11.86,0.08,-0.21,11.91,0.04640000000000022,0.138499999999998,146.49959999999984,0.46762399999999615,0.8565629999999949,1065.0,1065.0
11.88,0.09,0.07,11.61,0.04810000000000034,0.13709999999999792,146.73479999999986,0.46856899999999624,0.859318999999995,1070.0,1070.0
11.9,-0.12,-0.11,11.31,0.04780000000000034,0.13669999999999793,146.96399999999986,0.4695279999999962,0.8620569999999949,1075.0,1075.0
11.92,-0.04,0.03,11.01,0.04620000000000038,0.13589999999999794,147.18719999999985,0.4704679999999962,0.8647829999999948,1080.0,1080.0
11.94,0.03,0.24,10.71,0.046100000000000384,0.1385999999999979,147.40439999999984,0.47139099999999623,0.8675279999999946,1085.0,1085.0
11.96,0.11,-0.33,10.41,0.04750000000000048,0.13769999999999782,147.61559999999986,0.4723269999999963,0.8702909999999948,1090.0,1090.0
11.98,-0.01,0.04,10.11,0.04850000000000046,0.1347999999999979,147.82079999999985,0.4732869999999963,0.8730159999999947,1095.0,1095.0
12.0,-0.14,-0.16,7.81,0.04700000000000049,0.13359999999999791,147.99999999999986,0.4742419999999963,0.8756999999999946,800.0,800.0
12.02,-0.23,-0.06,7.81,0.043300000000000574,0.13139999999999796,148.15619999999984,0.47514499999999626,0.8783499999999945,798.5,798.5
12.04,-0.1,0.26,7.81,0.040000000000000646,0.1333999999999979,148.31239999999983,0.47597799999999624,0.8809979999999944,797.0,797.0
12.06,-0.05,-0.04,7.81,0.03850000000000055,0.13559999999999806,148.46859999999984,0.47676299999999633,0.8836879999999946,795.5,795.5
12.08,0.01,-0.32,7.81,0.03810000000000056,0.13199999999999812,148.62479999999982,0.4775289999999963,0.8863639999999945,794.0,794.0
12.1,-0.06,-0.14,7.81,0.03760000000000057,0.1273999999999982,148.7809999999998,0.4782859999999963,0.8889579999999944,792.5,792.5
12.12,0.15,-0.04,7.81,0.038500000000000555,0.12559999999999824,148.9371999999998,0.47904699999999634,0.8914879999999943,791.0,791.0
12.14,-0.1,0.3,7.81,0.03900000000000059,0.12819999999999843,149.0933999999998,0.4798219999999964,0.8940259999999944,789.5,789.5
12.16,-0.1,0.05,7.81,0.03700000000000063,0.13169999999999835,149.2495999999998,0.4805819999999964,0.8966249999999943,788.0,788.0
12.18,0.09,-0.5,7.81,0.036900000000000634,0.12719999999999845,149.40579999999977,0.4813209999999964,0.8992139999999943,786.5,786.5
12.2,-0.01,-0.15,7.81,0.037700000000000615,0.12069999999999859,149.56199999999976,0.48206699999999636,0.9016929999999942,785.0,785.0
12.22,0.11,-0.17,7.81,0.038700000000000685,0.11749999999999837,149.71819999999977,0.4828309999999964,0.9040749999999943,783.5,783.5
12.24,0.09,-0.27,7.81,0.040700000000000645,0.11309999999999847,149.87439999999975,0.4836249999999964,0.9063809999999942,782.0,782.0
12.26,0.04,0.03,7.81,0.04200000000000062,0.11069999999999852,150.03059999999974,0.48445199999999644,0.9086189999999942,780.5,780.5
12.28,-0.03,-0.25,7.81,0.042100000000000616,0.10849999999999857,150.18679999999972,0.4852929999999964,0.9108109999999942,779.0,779.0
12.3,0.07,-0.14,7.81,0.04250000000000064,0.1045999999999983,150.34299999999973,0.4861389999999965,0.9129419999999943,777.5,777.5
12.32,0.17,-0.12,7.81,0.04490000000000059,0.10199999999999836,150.49919999999972,0.4870129999999965,0.9150079999999942,776.0,776.0
12.34,0.31,0.3,7.81,0.04970000000000049,0.10379999999999832,150.6553999999997,0.4879589999999965,0.917065999999994,774.5,774.5
12.36,-0.31,-0.0,7.81,0.04970000000000049,0.10679999999999826,150.8115999999997,0.4889529999999965,0.919171999999994,773.0,773.0
12.38,0.17,-0.21,7.81,0.04830000000000039,0.10469999999999811,150.9677999999997,0.48993299999999657,0.9212869999999941,771.5,771.5
12.4,-0.14,0.02,7.81,0.048600000000000386,0.10279999999999816,151.12399999999968,0.49090199999999656,0.923361999999994,770.0,770.0
12.42,0.12,0.08,7.81,0.04840000000000039,0.10379999999999813,151.28019999999967,0.49187199999999653,0.9254279999999939,768.5,768.5
12.44,0.06,0.19,7.81,0.05020000000000035,0.10649999999999807,151.43639999999965,0.4928579999999965,0.9275309999999939,767.0,767.0
12.46,0.22,-0.1,7.81,0.05300000000000054,0.10739999999999814,151.59259999999966,0.4938899999999966,0.929669999999994,765.5,765.5
12.48,-0.13,-0.3,7.81,0.053900000000000524,0.10339999999999822,151.74879999999965,0.4949589999999966,0.9317779999999939,764.0,764.0
12.5,-0.07,-0.29,7.81,0.051900000000000564,0.09749999999999834,151.90499999999963,0.4960169999999966,0.9337869999999938,762.5,762.5
12.52,-0.05,0.24,7.81,0.05070000000000059,0.09699999999999835,152.06119999999962,0.49704299999999657,0.9357319999999938,761.0,761.0
12.54,-0.41,-0.21,7.81,0.04610000000000069,0.09729999999999835,152.2173999999996,0.49801099999999654,0.9376749999999937,759.5,759.5
12.56,0.0,0.16,7.81,0.04200000000000041,0.09679999999999832,152.3735999999996,0.4988919999999966,0.9396159999999938,758.0,758.0
12.58,-0.05,0.02,7.81,0.041500000000000425,0.09859999999999829,152.5297999999996,0.4997269999999966,0.9415699999999937,756.5,756.5
12.6,-0.3,0.42,7.81,0.0380000000000005,0.10299999999999819,152.68599999999958,0.5005219999999966,0.9435859999999936,755.0,755.0
12.62,0.18,-0.42,7.81,0.03680000000000053,0.10299999999999819,152.84219999999956,0.5012699999999966,0.9456459999999935,753.5,753.5
12.64,0.01,-0.12,7.81,0.03870000000000066,0.09759999999999783,152.99839999999958,0.5020249999999966,0.9476519999999936,752.0,752.0
12.66,-0.07,-0.05,7.81,0.03810000000000067,0.09589999999999786,153.15459999999956,0.5027929999999966,0.9495869999999935,750.5,750.5
12.68,0.19,-0.01,7.81,0.03930000000000064,0.09529999999999787,153.31079999999955,0.5035669999999965,0.9514989999999934,749.0,749.0
12.7,-0.08,0.22,7.81,0.040400000000000616,0.09739999999999782,153.46699999999953,0.5043639999999966,0.9534259999999933,747.5,747.5
12.72,0.33,-0.09,7.81,0.042900000000000785,0.09869999999999791,153.62319999999954,0.5051969999999967,0.9553869999999934,746.0,746.0
12.74,-0.06,-0.17,7.81,0.04560000000000073,0.09609999999999796,153.77939999999953,0.5060819999999967,0.9573349999999934,744.5,744.5
12.76,0.03,0.16,7.81,0.045300000000000736,0.09599999999999796,153.9355999999995,0.5069909999999967,0.9592559999999933,743.0,743.0
12.78,0.13,0.15,7.81,0.046900000000000705,0.0990999999999979,154.0917999999995,0.5079129999999967,0.9612069999999933,741.5,741.5
12.8,-0.19,-0.37,7.81,0.04630000000000067,0.09689999999999775,154.2479999999995,0.5088449999999968,0.9631669999999933,740.0,740.0
12.82,-0.41,0.14,7.81,0.040300000000000794,0.0945999999999978,154.4041999999995,0.5097109999999968,0.9650819999999932,738.5,738.5
12.84,0.29,0.15,7.81,0.03910000000000082,0.09749999999999774,154.56039999999948,0.5105049999999968,0.9670029999999932,737.0,737.0
12.86,0.1,0.34,7.81,0.04300000000000074,0.10239999999999763,154.71659999999946,0.5113259999999967,0.969001999999993,735.5,735.5
12.88,-0.08,-0.14,7.81,0.04320000000000075,0.10439999999999777,154.87279999999947,0.5121879999999968,0.9710699999999931,734.0,734.0
12.9,0.19,0.03,7.81,0.04430000000000073,0.1032999999999978,155.02899999999946,0.5130629999999967,0.973146999999993,732.5,732.5
12.92,-0.19,0.03,7.81,0.04430000000000073,0.10389999999999779,155.18519999999944,0.5139489999999967,0.975218999999993,731.0,731.0
12.94,0.16,0.12,7.81,0.04400000000000073,0.10539999999999776,155.34139999999942,0.5148319999999966,0.9773119999999929,729.5,729.5
12.96,0.07,0.07,7.81,0.04630000000000089,0.10729999999999788,155.49759999999944,0.5157349999999967,0.979438999999993,728.0,728.0
12.98,0.13,-0.04,7.81,0.04830000000000085,0.10759999999999788,155.65379999999942,0.5166809999999967,0.9815879999999929,726.5,726.5
13.0,0.21,0.03,7.81,0.05170000000000077,0.10749999999999788,155.8099999999994,0.5176809999999967,0.9837389999999928,725.0,725.0
13.02,0.12,0.31,7.81,0.0550000000000007,0.1108999999999978,155.9661999999994,0.5187479999999968,0.9859229999999928,723.5,723.5
13.04,-0.03,-0.06,7.81,0.055900000000000685,0.11339999999999775,156.12239999999937,0.5198569999999968,0.9881659999999927,722.0,722.0
13.06,-0.35,-0.07,7.81,0.05210000000000043,0.11209999999999766,156.2785999999994,0.5209369999999969,0.9904209999999928,720.5,720.5
13.08,-0.08,-0.23,7.81,0.04780000000000052,0.10909999999999773,156.43479999999937,0.5219359999999968,0.9926329999999927,719.0,719.0
13.1,-0.07,-0.21,7.81,0.046300000000000556,0.10469999999999782,156.59099999999935,0.5228769999999968,0.9947709999999925,717.5,717.5
13.12,0.06,0.01,7.81,0.04620000000000056,0.10269999999999786,156.74719999999934,0.5238019999999968,0.9968449999999924,716.0,716.0
13.14,0.03,0.12,7.81,0.04710000000000062,0.10399999999999796,156.90339999999935,0.5247349999999968,0.9989119999999926,714.5,714.5
13.16,0.08,-0.11,7.81,0.0482000000000006,0.10409999999999796,157.05959999999934,0.5256879999999968,1.0009929999999925,713.0,713.0
13.18,0.13,-0.25,7.81,0.05030000000000055,0.10049999999999804,157.21579999999932,0.5266729999999968,1.0030389999999925,711.5,711.5
13.2,0.18,-0.07,7.81,0.05340000000000049,0.09729999999999811,157.3719999999993,0.5277099999999968,1.0050169999999923,710.0,710.0
13.22,-0.08,0.04,7.81,0.05440000000000056,0.09699999999999809,157.52819999999932,0.5287879999999969,1.0069599999999923,708.5,708.5
13.24,-0.24,-0.3,7.81,0.05120000000000063,0.09439999999999814,157.6843999999993,0.5298439999999969,1.0088739999999923,707.0,707.0
13.26,-0.04,-0.22,7.81,0.048400000000000686,0.08919999999999825,157.84059999999928,0.5308399999999969,1.0107099999999922,705.5,705.5
13.28,-0.23,-0.05,7.81,0.04570000000000074,0.08649999999999831,157.99679999999927,0.5317809999999968,1.0124669999999922,704.0,704.0
13.3,-0.09,-0.01,7.81,0.042500000000000523,0.08589999999999827,158.15299999999928,0.5326629999999969,1.0141909999999923,702.5,702.5
13.32,-0.15,0.13,7.81,0.04010000000000057,0.08709999999999825,158.30919999999927,0.5334889999999969,1.0159209999999923,701.0,701.0
13.34,-0.13,-0.06,7.81,0.03730000000000063,0.08779999999999823,158.46539999999925,0.5342629999999968,1.0176699999999923,699.5,699.5
13.36,0.15,-0.05,7.81,0.03750000000000063,0.08669999999999825,158.62159999999923,0.5350109999999968,1.0194149999999922,698.0,698.0
13.38,-0.11,-0.42,7.81,0.037900000000000655,0.08199999999999794,158.77779999999925,0.5357649999999968,1.0211019999999922,696.5,696.5
13.4,-0.0,-0.05,7.81,0.03680000000000068,0.07729999999999804,158.93399999999923,0.5365119999999968,1.0226949999999921,695.0,695.0
13.42,-0.19,0.08,7.81,0.03490000000000072,0.07759999999999803,159.09019999999921,0.5372289999999967,1.0242439999999922,693.5,693.5
13.44,-0.13,-0.05,7.81,0.03170000000000079,0.07789999999999803,159.2463999999992,0.5378949999999968,1.0257989999999921,692.0,692.0
13.46,-0.41,-0.0,7.81,0.026300000000000427,0.077399999999998,159.4025999999992,0.5384749999999968,1.0273519999999923,690.5,690.5
13.48,0.23,-0.06,7.81,0.024500000000000466,0.07679999999999801,159.5587999999992,0.5389829999999968,1.0288939999999922,689.0,689.0
13.5,-0.08,0.05,7.81,0.026000000000000432,0.076699999999998,159.71499999999918,0.5394879999999967,1.030428999999992,687.5,687.5
13.52,-0.34,-0.13,7.81,0.02180000000000052,0.07589999999999802,159.87119999999916,0.5399659999999967,1.031954999999992,686.0,686.0
13.54,-0.03,0.12,7.81,0.018100000000000598,0.07579999999999802,160.02739999999915,0.5403649999999968,1.033471999999992,684.5,684.5
13.56,-0.21,0.15,7.81,0.015700000000000436,0.07849999999999821,160.18359999999916,0.5407029999999968,1.035014999999992,683.0,683.0
13.58,-0.2,-0.04,7.81,0.011600000000000523,0.07959999999999819,160.33979999999914,0.5409759999999968,1.0365959999999919,681.5,681.5
13.6,-0.36,-0.04,7.81,0.006000000000000642,0.0787999999999982,160.49599999999913,0.5411519999999967,1.0381799999999919,680.0,680.0
13.62,0.1,-0.17,7.81,0.003400000000000697,0.07669999999999826,160.6521999999991,0.5412459999999968,1.0397349999999919,678.5,678.5
13.64,0.06,-0.08,7.81,0.005000000000000805,0.07419999999999809,160.80839999999912,0.5413299999999968,1.0412439999999918,677.0,677.0
13.66,0.33,0.44,7.81,0.008900000000000722,0.07779999999999801,160.9645999999991,0.5414689999999968,1.0427639999999918,675.5,675.5
13.68,-0.08,-0.36,7.81,0.011400000000000668,0.07859999999999799,161.1207999999991,0.5416719999999968,1.0443279999999917,674.0,674.0
13.7,0.23,0.19,7.81,0.012900000000000637,0.07689999999999803,161.27699999999908,0.5419149999999968,1.0458829999999917,672.5,672.5
13.72,-0.16,-0.69,7.81,0.013600000000000684,0.07189999999999769,161.4331999999991,0.5421799999999969,1.0473709999999918,671.0,671.0
13.74,-0.1,-0.07,7.81,0.01100000000000074,0.06429999999999784,161.58939999999907,0.5424259999999969,1.0487329999999917,669.5,669.5
13.76,-0.11,-0.34,7.81,0.008900000000000784,0.060199999999997936,161.74559999999906,0.5426249999999969,1.0499779999999916,668.0,668.0
13.78,0.22,0.3,7.81,0.01000000000000076,0.059799999999997945,161.90179999999904,0.5428139999999969,1.0511779999999915,666.5,666.5
13.8,0.01,0.01,7.81,0.012300000000000914,0.06289999999999815,162.05799999999905,0.543036999999997,1.0524049999999916,665.0,665.0
13.82,-0.25,0.23,7.81,0.009900000000000965,0.0652999999999981,162.21419999999904,0.543258999999997,1.0536869999999916,663.5,663.5
13.84,0.31,-0.07,7.81,0.010500000000000953,0.06689999999999806,162.37039999999902,0.543462999999997,1.0550089999999914,662.0,662.0
13.86,-0.03,-0.02,7.81,0.013300000000000894,0.06599999999999807,162.526599999999,0.543700999999997,1.0563379999999913,660.5,660.5
13.88,-0.39,-0.22,7.81,0.009100000000000611,0.06359999999999791,162.68279999999902,0.543924999999997,1.0576339999999913,659.0,659.0
13.9,-0.08,-0.18,7.81,0.004400000000000711,0.059599999999997995,162.838999999999,0.544059999999997,1.0588659999999912,657.5,657.5
13.92,-0.09,0.27,7.81,0.002700000000000747,0.06049999999999798,162.995199999999,0.544130999999997,1.0600669999999912,656.0,656.0
13.94,-0.34,-0.1,7.81,-0.001599999999999162,0.062199999999997944,163.15139999999897,0.544141999999997,1.061293999999991,654.5,654.5
13.96,-0.2,0.15,7.81,-0.0069999999999995266,0.06269999999999798,163.30759999999898,0.544055999999997,1.0625429999999911,653.0,653.0
13.98,0.05,0.26,7.81,-0.008499999999999494,0.06679999999999789,163.46379999999897,0.543900999999997,1.063837999999991,651.5,651.5
14.0,-0.12,-0.19,7.81,-0.00919999999999948,0.06749999999999787,163.61999999999895,0.543723999999997,1.0651809999999908,650.0,650.0
14.02,0.36,-0.22,7.81,-0.00679999999999953,0.06339999999999796,163.77619999999894,0.543563999999997,1.0664899999999908,648.5,648.5
14.04,-0.05,0.24,7.81,-0.0036999999999995964,0.06359999999999795,163.93239999999892,0.543458999999997,1.0677599999999907,647.0,647.0
14.06,0.05,-0.11,7.81,-0.0036999999999995964,0.06489999999999804,164.08859999999893,0.543384999999997,1.0690449999999907,645.5,645.5
14.08,0.11,0.17,7.81,-0.0020999999999996304,0.06549999999999803,164.24479999999892,0.543326999999997,1.0703489999999907,644.0,644.0
14.1,0.01,0.03,7.81,-0.0008999999999996561,0.06749999999999799,164.4009999999989,0.543296999999997,1.0716789999999905,642.5,642.5
14.12,-0.01,-0.17,7.81,-0.0008999999999996561,0.06609999999999802,164.5571999999989,0.5432789999999971,1.0730149999999905,641.0,641.0
14.14,-0.12,0.19,7.81,-0.002199999999999744,0.06629999999999804,164.7133999999989,0.5432479999999971,1.0743389999999906,639.5,639.5
14.16,0.07,-0.08,7.81,-0.002699999999999733,0.06739999999999802,164.86959999999888,0.5431989999999971,1.0756759999999905,638.0,638.0
14.18,-0.05,-0.05,7.81,-0.0024999999999997372,0.06609999999999805,165.02579999999887,0.5431469999999972,1.0770109999999904,636.5,636.5
14.2,-0.11,0.04,7.81,-0.004099999999999703,0.06599999999999805,165.18199999999885,0.5430809999999971,1.0783319999999903,635.0,635.0
14.22,0.3,0.25,7.81,-0.0021999999999995747,0.06889999999999824,165.33819999999886,0.5430179999999971,1.0796809999999903,633.5,633.5
14.24,0.07,0.26,7.81,0.0015000000000003465,0.07399999999999814,165.49439999999885,0.5430109999999971,1.0811099999999902,632.0,632.0
14.26,0.3,-0.11,7.81,0.005200000000000268,0.07549999999999811,165.65059999999883,0.5430779999999972,1.0826049999999903,630.5,630.5
14.28,0.08,0.4,7.81,0.009000000000000187,0.07839999999999805,165.80679999999882,0.5432199999999971,1.0841439999999902,629.0,629.0
14.3,-0.17,-0.08,7.81,0.008100000000000126,0.08159999999999827,165.96299999999883,0.5433909999999972,1.0857439999999903,627.5,627.5
14.32,-0.14,0.15,7.81,0.005000000000000192,0.08229999999999825,166.1191999999988,0.5435219999999972,1.0873829999999902,626.0,626.0
14.34,-0.31,-0.16,7.81,0.0005000000000002875,0.08219999999999825,166.2753999999988,0.5435769999999972,1.0890279999999901,624.5,624.5
14.36,0.24,-0.14,7.81,-0.0001999999999996976,0.07919999999999831,166.43159999999878,0.5435799999999972,1.0906419999999901,623.0,623.0
14.38,0.17,-0.2,7.81,0.0039000000000005792,0.07579999999999808,166.5877999999988,0.5436169999999972,1.0921919999999903,621.5,621.5
14.4,-0.32,0.26,7.81,0.0024000000000006113,0.07639999999999807,166.74399999999878,0.5436799999999973,1.0937139999999903,620.0,620.0
14.42,0.01,-0.31,7.81,-0.0006999999999993227,0.07589999999999808,166.90019999999876,0.5436969999999973,1.0952369999999902,618.5,618.5
14.44,-0.13,-0.29,7.81,-0.0018999999999992972,0.06989999999999821,167.05639999999875,0.5436709999999974,1.0966949999999902,617.0,617.0
14.46,-0.13,0.15,7.81,-0.004499999999999473,0.06849999999999812,167.21259999999876,0.5436069999999974,1.0980789999999903,615.5,615.5
14.48,-0.26,-0.13,7.81,-0.00839999999999939,0.06869999999999811,167.36879999999874,0.5434779999999975,1.0994509999999902,614.0,614.0
14.5,0.48,0.04,7.81,-0.006199999999999438,0.06779999999999813,167.52499999999873,0.5433319999999975,1.10081599999999,612.5,612.5
14.52,-0.0,-0.02,7.81,-0.0013999999999995405,0.06799999999999812,167.6811999999987,0.5432559999999975,1.10217399999999,611.0,611.0
14.54,-0.13,-0.14,7.81,-0.0026999999999995127,0.06639999999999815,167.8373999999987,0.5432149999999976,1.10351799999999,609.5,609.5
14.56,-0.02,0.32,7.81,-0.004199999999999614,0.06819999999999828,167.9935999999987,0.5431459999999976,1.10486399999999,608.0,608.0
14.58,-0.07,0.08,7.81,-0.0050999999999995944,0.0721999999999982,168.1497999999987,0.5430529999999976,1.10626799999999,606.5,606.5
14.6,0.06,-0.09,7.81,-0.005199999999999592,0.0720999999999982,168.30599999999868,0.5429499999999976,1.10771099999999,605.0,605.0
14.62,0.17,-0.14,7.81,-0.002899999999999641,0.06979999999999824,168.46219999999866,0.5428689999999976,1.1091299999999897,603.5,603.5
14.64,-0.23,0.05,7.81,-0.0034999999999996818,0.06889999999999817,168.61839999999867,0.5428049999999977,1.1105169999999898,602.0,602.0
14.66,0.16,-0.28,7.81,-0.004199999999999667,0.06659999999999822,168.77459999999866,0.5427279999999977,1.1118719999999898,600.5,600.5
14.68,0.46,0.28,7.81,0.0020000000000002013,0.06659999999999822,168.93079999999864,0.5427059999999977,1.1132039999999896,599.0,599.0
14.7,-0.15,0.18,7.81,0.005100000000000136,0.07119999999999811,169.08699999999862,0.5427769999999977,1.1145819999999895,597.5,597.5
14.72,0.13,0.38,7.81,0.004900000000000122,0.0767999999999985,169.24319999999864,0.5428769999999977,1.1160619999999897,596.0,596.0
14.74,-0.06,0.07,7.81,0.0056000000000001075,0.0812999999999984,169.39939999999862,0.5429819999999977,1.1176429999999895,594.5,594.5
14.76,0.07,0.07,7.81,0.005700000000000105,0.08269999999999837,169.5555999999986,0.5430949999999978,1.1192829999999894,593.0,593.0
14.78,0.34,0.01,7.81,0.009800000000000017,0.08349999999999835,169.7117999999986,0.5432499999999978,1.1209449999999892,591.5,591.5
14.8,0.42,-0.33,7.81,0.01740000000000053,0.08029999999999814,169.8679999999986,0.5435219999999978,1.1225829999999892,590.0,590.0
14.82,-0.07,0.24,7.81,0.020900000000000453,0.07939999999999815,170.0241999999986,0.5439049999999979,1.124179999999989,588.5,588.5
14.84,-0.26,0.31,7.81,0.017600000000000525,0.08489999999999803,170.18039999999857,0.5442899999999978,1.125822999999989,587.0,587.0
14.86,0.03,0.06,7.81,0.015300000000000574,0.08859999999999796,170.33659999999855,0.5446189999999979,1.1275579999999887,585.5,585.5
14.88,-0.04,0.18,7.81,0.015200000000000567,0.09099999999999812,170.49279999999857,0.5449239999999979,1.1293539999999889,584.0,584.0
14.9,-0.15,0.24,7.81,0.013300000000000608,0.09519999999999804,170.64899999999855,0.5452089999999978,1.131215999999989,582.5,582.5
14.92,0.3,0.08,7.81,0.014800000000000577,0.09839999999999796,170.80519999999854,0.5454899999999978,1.1331519999999888,581.0,581.0
14.94,-0.26,-0.07,7.81,0.015200000000000567,0.09849999999999796,170.96139999999852,0.5457899999999978,1.1351209999999887,579.5,579.5
14.96,0.24,0.0,7.81,0.015000000000000553,0.09779999999999792,171.11759999999853,0.5460919999999978,1.1370839999999889,578.0,578.0
14.98,0.45,-0.1,7.81,0.021900000000000405,0.09679999999999794,171.27379999999852,0.5464609999999978,1.1390299999999889,576.5,576.5
15.0,-0.08,0.06,7.81,0.025600000000000327,0.09639999999999795,171.4299999999985,0.5469359999999978,1.1409619999999887,575.0,575.0
15.02,0.21,-0.07,7.81,0.0269000000000003,0.09629999999999794,171.58619999999848,0.5474609999999978,1.1428889999999887,573.5,573.5
15.04,0.11,0.16,7.81,0.03010000000000023,0.09719999999999793,171.74239999999847,0.5480309999999977,1.1448239999999887,572.0,572.0
15.06,0.3,0.09,7.81,0.03420000000000051,0.0996999999999981,171.89859999999848,0.5486739999999978,1.1467929999999888,570.5,570.5
15.08,-0.17,-0.32,7.81,0.03550000000000048,0.09739999999999814,172.05479999999847,0.5493709999999977,1.1487639999999888,569.0,569.0
15.1,-0.04,-0.02,7.81,0.033400000000000526,0.09399999999999821,172.21099999999845,0.5500599999999978,1.1506779999999888,567.5,567.5
15.12,-0.16,0.51,7.81,0.031400000000000566,0.0988999999999981,172.36719999999843,0.5507079999999978,1.1526069999999886,566.0,566.0
15.14,0.02,0.11,7.81,0.03000000000000047,0.10509999999999851,172.52339999999845,0.5513219999999978,1.1546469999999887,564.5,564.5
15.16,-0.01,-0.01,7.81,0.03010000000000047,0.10609999999999849,172.67959999999843,0.5519229999999977,1.1567589999999885,563.0,563.0
15.18,-0.03,0.31,7.81,0.02970000000000048,0.10909999999999842,172.83579999999841,0.5525209999999977,1.1589109999999885,561.5,561.5
15.2,-0.05,0.28,7.81,0.028900000000000495,0.1149999999999983,172.9919999999984,0.5531069999999977,1.1611519999999884,560.0,560.0
15.22,0.53,0.25,7.81,0.03370000000000082,0.12029999999999866,173.1481999999984,0.5537329999999977,1.1635049999999885,558.5,558.5
15.24,0.12,-0.05,7.81,0.04020000000000068,0.12229999999999862,173.3043999999984,0.5544719999999977,1.1659309999999883,557.0,557.0
15.26,-0.12,-0.15,7.81,0.04020000000000068,0.12029999999999866,173.46059999999838,0.5552759999999978,1.168356999999988,555.5,555.5
15.28,0.02,0.19,7.81,0.0392000000000007,0.12069999999999866,173.61679999999836,0.5560699999999977,1.1707669999999881,554.0,554.0
15.3,-0.08,0.07,7.81,0.03860000000000066,0.12329999999999883,173.77299999999838,0.5568479999999978,1.1732069999999883,552.5,552.5
15.32,0.02,0.18,7.81,0.03800000000000067,0.12579999999999877,173.92919999999836,0.5576139999999978,1.1756979999999884,551.0,551.0
15.34,-0.19,-0.05,7.81,0.03630000000000071,0.12709999999999874,174.08539999999834,0.5583569999999979,1.1782269999999884,549.5,549.5
15.36,0.01,-0.07,7.81,0.034500000000000745,0.12589999999999876,174.24159999999833,0.5590649999999979,1.1807569999999883,548.0,548.0
15.38,-0.21,0.09,7.81,0.03250000000000061,0.12609999999999877,174.39779999999834,0.559734999999998,1.1832769999999884,546.5,546.5
15.4,0.1,0.0,7.81,0.031400000000000636,0.12699999999999875,174.55399999999833,0.5603739999999979,1.1858079999999882,545.0,545.0
15.42,-0.21,-0.07,7.81,0.03030000000000066,0.12629999999999877,174.7101999999983,0.5609909999999979,1.188340999999988,543.5,543.5
15.44,0.22,0.18,7.81,0.03040000000000066,0.12739999999999876,174.8663999999983,0.5615979999999979,1.1908779999999881,542.0,542.0
15.46,0.16,0.08,7.81,0.03420000000000092,0.12999999999999895,175.0225999999983,0.562243999999998,1.1934519999999882,540.5,540.5
15.48,0.0,0.23,7.81,0.03580000000000089,0.13309999999999889,175.1787999999983,0.562943999999998,1.196082999999988,539.0,539.0
15.5,-0.21,0.21,7.81,0.03370000000000093,0.1374999999999988,175.33499999999827,0.563638999999998,1.198788999999988,537.5,537.5
15.52,0.1,0.19,7.81,0.032600000000000955,0.1414999999999987,175.49119999999826,0.564301999999998,1.2015789999999877,536.0,536.0
15.54,-0.35,0.07,7.81,0.030100000000001008,0.14409999999999865,175.64739999999824,0.564928999999998,1.2044349999999877,534.5,534.5
15.56,0.19,-0.17,7.81,0.0285000000000009,0.1430999999999986,175.80359999999826,0.5655149999999981,1.207306999999988,533.0,533.0
15.58,-0.1,0.06,7.81,0.02940000000000088,0.1419999999999986,175.95979999999824,0.5660939999999981,1.2101579999999879,531.5,531.5
15.6,-0.2,0.33,7.81,0.026400000000000944,0.1458999999999985,176.11599999999822,0.5666519999999982,1.2130369999999877,530.0,530.0
15.62,0.11,0.0,7.81,0.025500000000000963,0.14919999999999844,176.2721999999982,0.5671709999999982,1.2159879999999876,528.5,528.5
15.64,0.0,-0.31,7.81,0.026600000000001036,0.14609999999999823,176.42839999999822,0.5676919999999983,1.2189409999999878,527.0,527.0
15.66,0.06,-0.08,7.81,0.027200000000001022,0.14219999999999833,176.5845999999982,0.5682299999999983,1.2218239999999878,525.5,525.5
15.68,0.59,0.06,7.81,0.03370000000000088,0.14199999999999832,176.7407999999982,0.5688389999999983,1.2246659999999878,524.0,524.0
15.7,0.09,-0.03,7.81,0.04050000000000074,0.14229999999999832,176.89699999999817,0.5695809999999983,1.2275089999999877,522.5,522.5
15.72,0.0,-0.01,7.81,0.0414000000000008,0.14189999999999828,177.05319999999818,0.5703999999999985,1.230350999999988,521.0,521.0
15.74,0.31,0.19,7.81,0.04450000000000073,0.14369999999999825,177.20939999999817,0.5712589999999984,1.233206999999988,519.5,519.5
15.76,0.29,-0.03,7.81,0.05050000000000061,0.1452999999999982,177.36559999999815,0.5722089999999984,1.2360969999999878,518.0,518.0
15.78,-0.03,0.06,7.81,0.05310000000000055,0.1455999999999982,177.52179999999814,0.5732449999999985,1.2390059999999876,516.5,516.5
15.8,0.17,0.14,7.81,0.054500000000000645,0.14759999999999834,177.67799999999815,0.5743209999999985,1.2419379999999878,515.0,515.0
15.82,-0.46,-0.45,7.81,0.05160000000000071,0.1444999999999984,177.83419999999813,0.5753819999999985,1.2448589999999877,513.5,513.5
15.84,-0.25,0.09,7.81,0.04450000000000086,0.14089999999999847,177.99039999999812,0.5763429999999985,1.2477129999999876,512.0,512.0
15.86,-0.14,0.22,7.81,0.04060000000000094,0.1439999999999984,178.1465999999981,0.5771939999999985,1.2505619999999875,510.5,510.5
15.88,0.07,-0.1,7.81,0.03990000000000089,0.1451999999999985,178.30279999999811,0.5779989999999986,1.2534539999999876,509.0,509.0
15.9,-0.22,-0.08,7.81,0.038400000000000926,0.14339999999999853,178.4589999999981,0.5787819999999986,1.2563399999999876,507.5,507.5
15.92,-0.23,-0.39,7.81,0.03390000000000102,0.13869999999999863,178.61519999999808,0.5795049999999986,1.2591609999999875,506.0,506.0
15.94,0.33,-0.29,7.81,0.034900000000001,0.13189999999999877,178.77139999999807,0.5801929999999986,1.2618669999999874,504.5,504.5
15.96,0.15,-0.13,7.81,0.039700000000001325,0.12769999999999848,178.92759999999808,0.5809389999999987,1.2644629999999875,503.0,503.0
15.98,-0.07,0.31,7.81,0.040500000000001306,0.12949999999999845,179.08379999999806,0.5817409999999986,1.2670349999999875,501.5,501.5
16.0,0.07,0.05,9.81,0.040500000000001306,0.1330999999999984,179.25999999999806,0.5825509999999986,1.2696609999999875,600.0,600.0
16.02,0.27,0.28,9.81,0.04390000000000124,0.13639999999999833,179.45619999999806,0.5833949999999986,1.2723559999999874,600.0,600.0
16.04,0.09,-0.09,9.81,0.04750000000000116,0.13829999999999829,179.65239999999807,0.5843089999999985,1.2751029999999872,600.0,600.0
16.06,0.01,0.2,9.81,0.04850000000000114,0.13939999999999828,179.84859999999807,0.5852689999999985,1.277879999999987,600.0,600.0
16.08,0.27,0.36,9.81,0.05130000000000108,0.14499999999999816,180.04479999999808,0.5862669999999985,1.2807239999999869,600.0,600.0
16.1,0.31,-0.03,9.81,0.05710000000000199,0.14829999999999868,180.2409999999981,0.5873509999999987,1.2836569999999874,600.0,600.0
16.12,-0.26,0.08,9.81,0.057600000000001976,0.14879999999999868,180.4371999999981,0.5884979999999987,1.2866279999999872,600.0,600.0
16.14,-0.03,0.17,9.81,0.05470000000000204,0.15129999999999863,180.63339999999812,0.5896209999999987,1.289628999999987,600.0,600.0
16.16,-0.14,-0.09,9.81,0.05300000000000207,0.15209999999999863,180.82959999999812,0.5906979999999987,1.292662999999987,600.0,600.0
16.18,0.14,0.05,9.81,0.05300000000000207,0.15169999999999864,181.02579999999813,0.5917579999999988,1.295700999999987,600.0,600.0
16.2,-0.27,-0.2,9.81,0.0517000000000021,0.15019999999999867,181.22199999999813,0.5928049999999988,1.2987199999999868,600.0,600.0
16.22,0.44,-0.22,9.81,0.053400000000002064,0.14599999999999877,181.41819999999814,0.5938559999999988,1.3016819999999867,600.0,600.0
16.24,-0.01,-0.16,9.81,0.05770000000000197,0.14219999999999886,181.61439999999814,0.5949669999999988,1.3045639999999865,600.0,600.0
16.26,0.45,0.04,9.81,0.06210000000000266,0.14099999999999865,181.81059999999817,0.5961649999999991,1.307395999999987,600.0,600.0
16.28,-0.07,-0.4,9.81,0.06590000000000258,0.13739999999999872,182.00679999999818,0.5974449999999991,1.3101799999999868,600.0,600.0
16.3,0.27,0.27,9.81,0.06790000000000254,0.13609999999999875,182.20299999999818,0.5987829999999992,1.3129149999999867,600.0,600.0
16.32,-0.11,-0.07,9.81,0.0695000000000025,0.1380999999999987,182.3991999999982,0.6001569999999992,1.3156569999999868,600.0,600.0
16.34,0.06,0.22,9.81,0.06900000000000252,0.13959999999999867,182.5953999999982,0.6015419999999991,1.3184339999999866,600.0,600.0
16.36,0.21,-0.11,9.81,0.07170000000000246,0.14069999999999866,182.7915999999982,0.6029489999999992,1.3212369999999865,600.0,600.0
16.38,0.16,-0.11,9.81,0.07540000000000238,0.1384999999999987,182.9877999999982,0.6044199999999992,1.3240289999999864,600.0,600.0
16.4,0.12,0.17,9.81,0.07820000000000232,0.1390999999999987,183.1839999999982,0.6059559999999992,1.3268049999999862,600.0,600.0
16.42,0.1,-0.38,9.81,0.08040000000000266,0.13699999999999837,183.38019999999824,0.6075419999999995,1.3295659999999867,600.0,600.0
16.44,0.16,0.33,9.81,0.08300000000000261,0.13649999999999837,183.57639999999824,0.6091759999999995,1.3323009999999866,600.0,600.0
16.46,0.07,0.04,9.81,0.08530000000000257,0.1401999999999983,183.77259999999825,0.6108589999999995,1.3350679999999866,600.0,600.0
16.48,0.11,-0.0,9.81,0.08710000000000254,0.14059999999999828,183.96879999999825,0.6125829999999995,1.3378759999999865,600.0,600.0
16.5,-0.01,0.09,9.81,0.08810000000000251,0.14149999999999827,184.16499999999826,0.6143349999999995,1.3406969999999865,600.0,600.0
16.52,-0.04,-0.06,9.81,0.08760000000000252,0.14179999999999826,184.36119999999826,0.6160919999999995,1.3435299999999863,600.0,600.0
16.54,-0.07,0.09,9.81,0.08650000000000255,0.14209999999999826,184.55739999999827,0.6178329999999995,1.3463689999999862,600.0,600.0
16.56,0.26,0.08,9.81,0.0884000000000025,0.1437999999999982,184.75359999999827,0.6195819999999995,1.349227999999986,600.0,600.0
16.58,0.06,0.14,9.81,0.09160000000000243,0.14599999999999816,184.94979999999828,0.6213819999999995,1.352125999999986,600.0,600.0
16.6,-0.04,-0.24,9.81,0.09180000000000246,0.144999999999998,185.1459999999983,0.6232159999999999,1.3550359999999864,600.0,600.0
16.62,-0.07,0.14,9.81,0.09070000000000249,0.14399999999999802,185.34219999999831,0.6250409999999998,1.3579259999999862,600.0,600.0
16.64,0.02,-0.08,9.81,0.0902000000000025,0.144599999999998,185.53839999999832,0.6268499999999999,1.3608119999999861,600.0,600.0
16.66,-0.16,-0.12,9.81,0.08880000000000253,0.14259999999999806,185.73459999999832,0.6286399999999999,1.3636839999999861,600.0,600.0
16.68,-0.16,0.11,9.81,0.08560000000000259,0.14249999999999807,185.93079999999833,0.6303839999999998,1.366534999999986,600.0,600.0
16.7,0.07,0.0,9.81,0.0847000000000026,0.14359999999999806,186.12699999999833,0.6320869999999998,1.369395999999986,600.0,600.0
16.72,-0.01,-0.11,9.81,0.0853000000000026,0.14249999999999807,186.32319999999834,0.6337869999999999,1.372256999999986,600.0,600.0
16.74,0.03,0.08,9.81,0.08550000000000259,0.14219999999999808,186.51939999999834,0.6354949999999999,1.375103999999986,600.0,600.0
16.76,0.11,-0.07,9.81,0.08690000000000281,0.1422999999999981,186.71559999999837,0.6372190000000002,1.3779489999999863,600.0,600.0
16.78,-0.17,-0.04,9.81,0.08630000000000282,0.1411999999999981,186.91179999999838,0.6389510000000003,1.3807839999999862,600.0,600.0
16.8,0.13,0.08,9.81,0.08590000000000282,0.1415999999999981,187.10799999999838,0.6406730000000003,1.383611999999986,600.0,600.0
16.82,0.39,0.29,9.81,0.0911000000000027,0.14529999999999801,187.3041999999984,0.6424430000000003,1.386480999999986,600.0,600.0
16.84,0.14,0.13,9.81,0.0964000000000026,0.1494999999999979,187.5003999999984,0.6443180000000003,1.389428999999986,600.0,600.0
16.86,0.13,0.2,9.81,0.09910000000000253,0.15279999999999785,187.6965999999984,0.6462730000000003,1.392451999999986,600.0,600.0
16.88,-0.08,0.33,9.81,0.09960000000000252,0.15809999999999774,187.8927999999984,0.6482600000000003,1.3955609999999858,600.0,600.0
16.9,-0.05,-0.13,9.81,0.09830000000000255,0.1600999999999977,188.0889999999984,0.6502390000000002,1.3987429999999856,600.0,600.0
16.92,0.32,-0.3,9.81,0.10100000000000298,0.15579999999999702,188.28519999999844,0.6522320000000006,1.401901999999986,600.0,600.0
16.94,-0.13,-0.21,9.81,0.10290000000000293,0.15069999999999714,188.48139999999844,0.6542710000000006,1.4049669999999859,600.0,600.0
16.96,0.21,-0.56,9.81,0.10370000000000291,0.1429999999999973,188.67759999999845,0.6563370000000006,1.4079039999999858,600.0,600.0
16.98,0.03,0.31,9.81,0.10610000000000286,0.14049999999999735,188.87379999999845,0.6584350000000007,1.4107389999999858,600.0,600.0
17.0,-0.19,0.08,9.81,0.1045000000000029,0.14439999999999725,189.06999999999846,0.6605410000000007,1.4135879999999856,600.0,600.0
17.02,0.2,-0.11,9.81,0.1046000000000029,0.14409999999999726,189.26619999999846,0.6626320000000008,1.4164729999999854,600.0,600.0
17.04,0.19,-0.09,9.81,0.10850000000000282,0.1420999999999973,189.46239999999847,0.6647630000000008,1.4193349999999854,600.0,600.0
17.06,0.23,0.15,9.81,0.11270000000000273,0.1426999999999973,189.65859999999847,0.6669750000000008,1.4221829999999853,600.0,600.0
17.08,0.01,-0.07,9.81,0.11510000000000267,0.1434999999999973,189.85479999999848,0.6692530000000008,1.4250449999999852,600.0,600.0
17.1,0.01,-0.05,9.81,0.1153000000000027,0.1422999999999971,190.0509999999985,0.6715570000000012,1.4279029999999857,600.0,600.0
17.12,-0.23,0.24,9.81,0.11310000000000275,0.14419999999999705,190.24719999999851,0.6738410000000011,1.4307679999999856,600.0,600.0
17.14,0.22,-0.18,9.81,0.11300000000000275,0.14479999999999704,190.44339999999852,0.6761020000000011,1.4336579999999854,600.0,600.0
17.16,0.29,-0.08,9.81,0.11810000000000265,0.1421999999999971,190.63959999999852,0.678413000000001,1.4365279999999854,600.0,600.0
17.18,-0.03,-0.26,9.81,0.1207000000000026,0.13879999999999718,190.83579999999853,0.6808010000000011,1.4393379999999854,600.0,600.0
17.2,0.09,0.03,9.81,0.12130000000000259,0.13649999999999723,191.03199999999853,0.6832210000000011,1.4420909999999851,600.0,600.0
17.22,-0.19,0.11,9.81,0.12030000000000261,0.1378999999999972,191.22819999999854,0.685637000000001,1.444834999999985,600.0,600.0
17.24,0.19,0.16,9.81,0.12030000000000261,0.14059999999999714,191.42439999999854,0.6880430000000011,1.4476199999999848,600.0,600.0
17.26,0.54,0.13,9.81,0.12760000000000377,0.1434999999999976,191.62059999999857,0.6905220000000015,1.4504609999999851,600.0,600.0
17.28,-0.16,0.11,9.81,0.13140000000000368,0.14589999999999756,191.81679999999858,0.6931120000000015,1.453354999999985,600.0,600.0
17.3,-0.34,0.1,9.81,0.1264000000000038,0.14799999999999752,192.01299999999858,0.6956900000000015,1.4562939999999849,600.0,600.0
17.32,-0.4,0.07,9.81,0.11900000000000395,0.14969999999999747,192.2091999999986,0.6981440000000015,1.4592709999999847,600.0,600.0
17.34,0.04,-0.21,9.81,0.11540000000000403,0.14829999999999752,192.4053999999986,0.7004880000000016,1.4622509999999846,600.0,600.0
17.36,0.01,0.06,9.81,0.11590000000000401,0.14679999999999754,192.6015999999986,0.7028010000000016,1.4652019999999846,600.0,600.0
17.38,0.17,-0.04,9.81,0.11770000000000398,0.14699999999999755,192.7977999999986,0.7051370000000016,1.4681399999999845,600.0,600.0
17.4,-0.06,0.01,9.81,0.11880000000000396,0.14669999999999755,192.9939999999986,0.7075020000000016,1.4710769999999844,600.0,600.0
17.42,0.0,-0.29,9.81,0.11820000000000386,0.1438999999999971,193.19019999999864,0.7098720000000021,1.4739829999999847,600.0,600.0
17.44,0.05,-0.19,9.81,0.11870000000000384,0.13909999999999723,193.38639999999864,0.7122410000000021,1.4768129999999846,600.0,600.0
17.46,-0.21,-0.02,9.81,0.11710000000000388,0.13699999999999726,193.58259999999865,0.7145990000000022,1.4795739999999844,600.0,600.0
17.48,0.5,0.14,9.81,0.12000000000000383,0.13819999999999724,193.77879999999865,0.7169700000000022,1.4823259999999843,600.0,600.0
17.5,0.22,0.02,9.81,0.12720000000000367,0.1397999999999972,193.97499999999866,0.7194420000000022,1.485105999999984,600.0,600.0
17.52,0.21,0.15,9.81,0.1315000000000036,0.14149999999999716,194.17119999999866,0.7220290000000023,1.487918999999984,600.0,600.0
17.54,0.04,-0.13,9.81,0.13400000000000353,0.14169999999999716,194.36739999999867,0.7246840000000022,1.490750999999984,600.0,600.0
17.56,-0.26,-0.14,9.81,0.13180000000000358,0.1389999999999972,194.56359999999867,0.7273420000000023,1.4935579999999837,600.0,600.0
17.58,0.03,-0.15,9.81,0.12950000000000364,0.13609999999999728,194.75979999999868,0.7299550000000022,1.4963089999999837,600.0,600.0
17.6,0.05,-0.17,9.81,0.13030000000000377,0.13289999999999677,194.9559999999987,0.7325530000000027,1.498998999999984,600.0,600.0
17.62,0.03,0.12,9.81,0.13110000000000377,0.13239999999999677,195.15219999999871,0.7351670000000027,1.5016519999999838,600.0,600.0
17.64,-0.09,0.11,9.81,0.13050000000000378,0.1346999999999967,195.34839999999872,0.7377830000000027,1.5043229999999836,600.0,600.0
17.66,0.02,0.14,9.81,0.1298000000000038,0.13719999999999666,195.54459999999872,0.7403860000000028,1.5070419999999836,600.0,600.0
17.68,0.2,-0.07,9.81,0.13200000000000375,0.13789999999999664,195.74079999999873,0.7430040000000028,1.5097929999999835,600.0,600.0
17.7,-0.08,0.29,9.81,0.13320000000000373,0.1400999999999966,195.93699999999873,0.7456560000000028,1.5125729999999833,600.0,600.0
17.72,0.32,0.48,9.81,0.1356000000000037,0.14779999999999643,196.13319999999874,0.7483440000000028,1.5154519999999831,600.0,600.0
17.74,-0.11,-0.11,9.81,0.13770000000000365,0.15149999999999636,196.32939999999874,0.7510770000000028,1.518444999999983,600.0,600.0
17.76,0.24,-0.01,9.81,0.13900000000000384,0.15029999999999616,196.52559999999878,0.7538440000000033,1.5214629999999834,600.0,600.0
17.78,-0.47,0.24,9.81,0.1367000000000039,0.1525999999999961,196.72179999999878,0.7566010000000033,1.5244919999999833,600.0,600.0
17.8,-0.1,0.29,9.81,0.13100000000000403,0.157899999999996,196.91799999999878,0.7592780000000033,1.5275969999999832,600.0,600.0
17.82,0.07,0.15,9.81,0.13070000000000404,0.1622999999999959,197.1141999999988,0.7618950000000033,1.5307989999999831,600.0,600.0
17.84,0.1,-0.06,9.81,0.132400000000004,0.16319999999999588,197.3103999999988,0.7645260000000034,1.534053999999983,600.0,600.0
17.86,-0.07,-0.1,9.81,0.13270000000000398,0.1615999999999959,197.5065999999988,0.7671770000000034,1.5373019999999828,600.0,600.0
17.88,-0.09,0.04,9.81,0.13110000000000402,0.16099999999999592,197.7027999999988,0.7698150000000035,1.5405279999999828,600.0,600.0
17.9,-0.07,-0.35,9.81,0.12950000000000406,0.157899999999996,197.8989999999988,0.7724210000000035,1.5437169999999827,600.0,600.0
17.92,-0.06,0.23,9.81,0.12820000000000387,0.1566999999999958,198.09519999999884,0.774998000000004,1.546862999999983,600.0,600.0
17.94,-0.02,0.12,9.81,0.12740000000000387,0.1601999999999957,198.29139999999884,0.777554000000004,1.5500319999999828,600.0,600.0
17.96,0.12,-0.19,9.81,0.12840000000000384,0.15949999999999573,198.48759999999885,0.780112000000004,1.5532289999999827,600.0,600.0
17.98,-0.11,0.39,9.81,0.12850000000000383,0.16149999999999567,198.68379999999885,0.7826810000000041,1.5564389999999826,600.0,600.0
18.0,-0.09,-0.28,9.81,0.1265000000000039,0.16259999999999566,198.87999999999886,0.7852310000000041,1.5596799999999824,600.0,600.0
18.02,0.08,-0.31,9.81,0.1264000000000039,0.1566999999999958,199.07619999999886,0.7877600000000041,1.5628729999999822,600.0,600.0
18.04,0.06,-0.28,9.81,0.12780000000000385,0.1507999999999959,199.27239999999887,0.7903020000000042,1.5659479999999821,600.0,600.0
18.06,0.14,0.45,9.81,0.1298000000000038,0.15249999999999586,199.46859999999887,0.7928780000000042,1.568980999999982,600.0,600.0
18.08,0.03,-0.14,9.81,0.13150000000000375,0.1555999999999958,199.66479999999888,0.7954910000000042,1.5720619999999819,600.0,600.0
18.1,-0.27,0.06,9.81,0.12910000000000338,0.15479999999999566,199.8609999999989,0.7980970000000046,1.5751659999999823,600.0,600.0
18.12,0.01,0.1,9.81,0.12650000000000344,0.15639999999999563,200.05719999999891,0.8006530000000046,1.578277999999982,600.0,600.0
18.14,0.03,0.24,9.81,0.12690000000000343,0.15979999999999556,200.25339999999892,0.8031870000000046,1.581439999999982,600.0,600.0
18.16,0.62,-0.05,9.81,0.1334000000000033,0.16169999999999551,200.44959999999892,0.8057900000000047,1.5846549999999817,600.0,600.0
18.18,0.2,0.03,9.81,0.1416000000000031,0.1614999999999955,200.64579999999893,0.8085400000000047,1.5878869999999816,600.0,600.0
18.2,-0.31,0.08,9.81,0.14050000000000312,0.1625999999999955,200.84199999999893,0.8113610000000047,1.5911279999999814,600.0,600.0
18.22,-0.1,-0.05,9.81,0.1364000000000032,0.1628999999999955,201.03819999999894,0.8141300000000047,1.5943829999999812,600.0,600.0
18.24,0.1,-0.07,9.81,0.1364000000000032,0.16169999999999551,201.23439999999894,0.8168580000000046,1.597628999999981,600.0,600.0
18.26,-0.13,-0.1,9.81,0.13610000000000316,0.15999999999999526,201.43059999999898,0.8195830000000052,1.6008459999999816,600.0,600.0
18.28,0.23,-0.22,9.81,0.13710000000000314,0.15679999999999533,201.62679999999898,0.8223150000000051,1.6040139999999814,600.0,600.0
18.3,0.17,0.17,9.81,0.14110000000000306,0.15629999999999533,201.82299999999898,0.8250970000000051,1.6071449999999812,600.0,600.0
